acc_x, acc_y, angular_z, stamp, 
-0.023359239101409912, -0.013823091983795166, 5.948356300694268e-06, 1759500106724056497, 
-0.03632152080535889, 0.0008094906806945801, 5.931451178537448e-06, 1759500106814153993, 
0.01753056049346924, 0.011745035648345947, 5.4678712821910995e-06, 1759500106906984476, 
0.024424970149993896, -0.02213120460510254, 6.48481052567993e-06, 1759500106934520237, 
-0.011902987957000732, 0.03305155038833618, 3.968744576040598e-06, 1759500106964500847, 
-0.022417545318603516, 0.00474780797958374, 3.9518078241417954e-06, 1759500106994615224, 
0.0028824210166931152, 0.0012646913528442383, 5.286368166300661e-06, 1759500107017148879, 
0.029655635356903076, 0.00480276346206665, 4.316579993006126e-06, 1759500107044723176, 
-0.010399937629699707, 0.004676401615142822, 3.9629347368740326e-06, 1759500107074764297, 
-0.04814457893371582, 0.008890151977539062, 4.095824370909407e-06, 1759500107103835304, 
0.02365100383758545, 0.010134875774383545, 3.830732185827142e-06, 1759500107134919211, 
-0.013932764530181885, 0.026248157024383545, 3.96017786053552e-06, 1759500107164989599, 
0.014715373516082764, -0.01497417688369751, 3.969652759693987e-06, 1759500107194992696, 
-0.02708679437637329, 0.011117696762084961, 1.852171912972989e-06, 1759500107227125054, 
-0.010645687580108643, 0.01878577470779419, 3.7772200778599416e-06, 1759500107258662805, 
0.027230441570281982, 0.015053093433380127, 2.2344363360111214e-06, 1759500107285304088, 
-0.017891287803649902, -0.0340496301651001, 3.970613836378363e-06, 1759500107315310191, 
-0.008837580680847168, -0.008414745330810547, 3.958145267612681e-06, 1759500107345413159, 
-0.01252812147140503, 0.00015020370483398438, 1.9831390165634275e-06, 1759500107375442388, 
-0.006717085838317871, -0.012292742729187012, 1.9822915569229524e-06, 1759500107405486887, 
-0.023027777671813965, -0.014387667179107666, 1.8953151657530258e-06, 1759500107466977776, 
-0.015716969966888428, -0.008533179759979248, 1.9002489994002968e-06, 1759500107498328587, 
0.007569015026092529, 0.018021762371063232, 2.162292571955239e-06, 1759500107525880212, 
0.005580425262451172, 0.010785400867462158, 1.9713388729691358e-06, 1759500107556103445, 
-0.0043457746505737305, -0.04089534282684326, -2.0019970665977848e-05, 1759500107585880235, 
0.1316431164741516, 0.0035842061042785645, 0.0016485100334103628, 1759500107615962769, 
2.103795289993286, -0.14750969409942627, 0.015048517452214222, 1759500107646006596, 
-0.2686240077018738, -0.06223011016845703, -0.01995606835838373, 1759500107676126831, 
1.2820663452148438, 0.39725905656814575, -0.024085987970703923, 1759500107705938064, 
0.6663568019866943, 0.17039108276367188, 0.003846998813845447, 1759500107738950223, 
0.09724181890487671, -0.5107473134994507, 0.022280954607373834, 1759500107768496762, 
0.14128905534744263, -0.003392457962036133, 0.034294729856471, 1759500107796348221, 
0.41969794034957886, 0.45872175693511963, 0.0182283327877997, 1759500107826436153, 
0.6647745966911316, -0.1904650330543518, 0.014495517366923047, 1759500107856482353, 
0.45371079444885254, -0.3995267152786255, 0.023331855472227755, 1759500107886586448, 
0.034045517444610596, 0.10297107696533203, -0.010666174743217214, 1759500107916705393, 
0.5645748376846313, 0.028626859188079834, -0.016498317260065974, 1759500107945901548, 
0.4762369394302368, 0.224320650100708, -0.026418940163888516, 1759500107978525706, 
0.9963598251342773, -0.20515888929367065, 0.001342964144443322, 1759500108009663681, 
0.8466826677322388, -0.04707670211791992, 0.004997309183037699, 1759500108037029941, 
0.6868879795074463, 0.2723822593688965, 0.01557419559129785, 1759500108067061355, 
0.7939828038215637, 0.13457167148590088, 0.010554675286919446, 1759500108097099172, 
0.42293351888656616, -0.2627871036529541, -0.032499690067175895, 1759500108127166223, 
0.25565630197525024, -0.12819570302963257, -0.03519248869992907, 1759500108157198736, 
0.3784340023994446, 0.1457592248916626, 0.008440684474245369, 1759500108187294856, 
0.39915037155151367, 0.1948050856590271, 0.011313618745732825, 1759500108218679659, 
0.44337403774261475, 0.04222404956817627, -0.006569010461287828, 1759500108251223035, 
0.23208165168762207, -0.357535719871521, -0.03625670148549972, 1759500108277560084, 
0.24198222160339355, -0.10815566778182983, 0.016098787507950327, 1759500108307629429, 
0.2561877369880676, -0.24478930234909058, 0.0191144127011275, 1759500108337678240, 
0.6733548641204834, 0.20189374685287476, -0.004714437096388855, 1759500108366830830, 
-0.4246484041213989, -0.3386266827583313, 0.02164447060090595, 1759500108397870146, 
0.28682029247283936, -0.0020502209663391113, 0.04979220673439232, 1759500108428045271, 
0.4058496356010437, 0.49850332736968994, 0.020869350438943626, 1759500108458716955, 
0.2863381505012512, -0.12045848369598389, 0.020719565567133492, 1759500108490739821, 
-0.24003124237060547, -0.2803601622581482, 0.029292767445429715, 1759500108518541092, 
0.19082701206207275, 0.21517211198806763, 0.010748171702128793, 1759500108548362188, 
-0.3263899087905884, -0.6630750894546509, 0.02841354272181002, 1759500108578943382, 
-0.1225937008857727, -0.11320018768310547, 0.0708669572560371, 1759500108608956350, 
0.2245943546295166, 0.14783453941345215, 0.030184491318280646, 1759500108638962713, 
-0.03081268072128296, -0.16548454761505127, 0.025765733373372342, 1759500108669029086, 
0.01972287893295288, -0.09590482711791992, 0.030633502786607446, 1759500108699109296, 
-0.014967799186706543, 0.3377271890640259, 0.011670109685208154, 1759500108730425025, 
0.029902517795562744, -0.41824936866760254, -0.009777933692208113, 1759500108760545896, 
0.1037786602973938, 0.10971343517303467, 0.00336021037656038, 1759500108789130274, 
0.21230441331863403, 0.5721516013145447, -0.0019458735351011226, 1759500108819128028, 
-0.042232394218444824, -0.3164920210838318, 7.57716291008877e-05, 1759500108849087072, 
0.08396017551422119, 0.21902287006378174, 0.030537126644311997, 1759500108879168833, 
0.1569993495941162, 0.3983207941055298, 0.00975851171966379, 1759500108909127499, 
-0.1579771637916565, -0.02616935968399048, 0.005637131431021578, 1759500108939287038, 
-0.0762324333190918, -0.04287046194076538, 0.0446921486000069, 1759500108970472797, 
-0.10939884185791016, -0.17717021703720093, 0.03011556922819995, 1759500109002699660, 
-0.1934366226196289, -0.050571322441101074, 0.009304022721252685, 1759500109029438301, 
0.09422218799591064, -0.0030766725540161133, 0.03976909924307888, 1759500109059392229, 
0.5319639444351196, -0.14028990268707275, 0.03950562488774392, 1759500109089321155, 
0.24859434366226196, 0.06127351522445679, 0.009452633900022408, 1759500109119459177, 
0.8964250087738037, -0.1306132674217224, 0.02657924863567284, 1759500109149508862, 
0.36151355504989624, -0.10062074661254883, 0.042625145234912995, 1759500109179596042, 
0.6082945466041565, 0.08598887920379639, 0.029053827399898847, 1759500109210893552, 
0.7045564651489258, 0.11609315872192383, 0.03223258837629441, 1759500109242891871, 
0.3415190577507019, -0.18910205364227295, 0.042833295186542664, 1759500109269856627, 
0.09498625993728638, 0.3364526033401489, 0.041477926068555736, 1759500109298824433, 
0.0804474949836731, -0.24374139308929443, 0.04555489180116039, 1759500109329882727, 
-0.06926274299621582, -0.1465688943862915, 0.04774967016445808, 1759500109360262177, 
0.160550057888031, 0.4739704728126526, -0.01089582742071403, 1759500109390077571, 
-0.06529879570007324, -0.3570215702056885, 0.030905904808828374, 1759500109450484768, 
0.29829293489456177, 0.34173887968063354, 0.005811924638826447, 1759500109482478580, 
-0.04880005121231079, -0.011979997158050537, 0.002023972643489909, 1759500109510375782, 
0.07342267036437988, -0.12808513641357422, 0.03819842780034947, 1759500109540385867, 
0.2981030344963074, 0.2741502523422241, 0.03581944737988786, 1759500109570440077, 
-0.09729671478271484, 0.061344027519226074, 0.022281223774911835, 1759500109600547313, 
0.22503966093063354, 0.1086127758026123, 0.037702320577999826, 1759500109630620156, 
0.15164470672607422, 0.22533416748046875, 0.025436148444429058, 1759500109660665761, 
-0.29639166593551636, -0.24093109369277954, 0.020233218788508145, 1759500109690731918, 
-0.1554083228111267, -0.5637333989143372, 0.026336184094044666, 1759500109722190028, 
-0.450473427772522, 0.32573366165161133, 0.017887589608675272, 1759500109753629238, 
-0.005466818809509277, -0.2798953652381897, 0.023426557069076894, 1759500109781092806, 
0.006119370460510254, 0.13557296991348267, 0.03716506741960383, 1759500109811085420, 
-0.06057941913604736, -0.39923882484436035, 0.0191968553179973, 1759500109834341839, 
0.0015923380851745605, 0.2935646176338196, 0.010718439300566825, 1759500109861266498, 
0.30852508544921875, -0.30368316173553467, 0.022127083995075868, 1759500109891188342, 
0.05529630184173584, -0.1700953245162964, 0.03157378330860032, 1759500109921295380, 
0.3356114625930786, 0.6173967123031616, 0.005125975656574833, 1759500109951339496, 
0.019918203353881836, -0.28554558753967285, 0.011911004693523124, 1759500109981437849, 
0.06453752517700195, -0.3965936303138733, 0.025495659043946597, 1759500110011488643, 
0.20947575569152832, 0.4834975004196167, 0.01472503903638074, 1759500110043177448, 
-0.14343047142028809, -0.1230577826499939, 0.01625329996958848, 1759500110074530478, 
0.06243330240249634, -0.12445282936096191, 0.043582269283153834, 1759500110101759221, 
0.25262951850891113, 0.3996412754058838, 0.038798316034605575, 1759500110131729117, 
-0.29045426845550537, 0.169877827167511, 0.03217097873909368, 1759500110160840868, 
0.08342587947845459, 0.028462588787078857, 0.0433103886482533, 1759500110191900052, 
0.19158494472503662, 0.3763688802719116, 0.02844889833458633, 1759500110222101494, 
-0.36404693126678467, -0.23451930284500122, 0.020187301461865023, 1759500110252112970, 
-0.41131335496902466, -0.25232142210006714, 0.03270367389907217, 1759500110283159271, 
0.05114102363586426, 0.2596418261528015, 0.03346866611303518, 1759500110314702670, 
-0.3697921633720398, -0.5798057913780212, 0.008260266985154694, 1759500110342376097, 
0.1803574562072754, 0.04812198877334595, 0.02953215636498574, 1759500110372367061, 
0.45167696475982666, 0.3202047348022461, 0.024040869327511333, 1759500110402590204, 
-0.22437405586242676, -0.12410736083984375, 0.018326494444395262, 1759500110432510253, 
-0.12292265892028809, 0.12673616409301758, 0.025871494975256187, 1759500110462647455, 
0.007384002208709717, 0.24538856744766235, 0.033113707203378195, 1759500110492578551, 
-0.19579046964645386, -0.22985517978668213, 0.030171745012980963, 1759500110522711547, 
-0.34283339977264404, -0.0009832978248596191, 0.03112736483036444, 1759500110554989225, 
0.23158854246139526, 0.15057796239852905, 0.021758721563728652, 1759500110584902380, 
0.1114930510520935, -0.271496057510376, 0.02972229780100767, 1759500110612867485, 
-0.36983805894851685, 0.037135541439056396, 0.031074882727219855, 1759500110643028634, 
-0.0025135278701782227, -0.29825741052627563, 0.03841449542895511, 1759500110673035616, 
0.3911314606666565, -0.28021353483200073, 0.030560080766858008, 1759500110703129360, 
0.163527250289917, 0.06947517395019531, 0.039665379108567704, 1759500110733146091, 
0.05931293964385986, 0.03057032823562622, 0.04443051416360193, 1759500110763277895, 
0.18987977504730225, -0.0920950174331665, 0.03437817980279308, 1759500110794584987, 
0.0388256311416626, 0.5389488339424133, 0.02772509671375546, 1759500110826399907, 
0.3687260150909424, -0.6598635911941528, 0.025009590006077886, 1759500110853486980, 
-0.1204037070274353, 0.4060909152030945, 0.028313484977848313, 1759500110883531614, 
0.21471256017684937, 0.16120243072509766, 0.026139124670094323, 1759500110913581410, 
-0.11234009265899658, -0.024820804595947266, 0.012407731611611322, 1759500110943630503, 
0.43165135383605957, 0.3212389349937439, 0.014104211330452773, 1759500110973773865, 
-0.05620688199996948, 0.027779102325439453, 0.01847780531274883, 1759500111003782426, 
0.2224574089050293, -0.027144551277160645, 0.027082183163922722, 1759500111033792285, 
0.13163036108016968, 0.3698495030403137, 0.01869069457068989, 1759500111067482468, 
-0.16159754991531372, -0.2256791591644287, 0.026173496196282325, 1759500111094097358, 
-0.23255866765975952, -0.7238074541091919, 0.03664166114424475, 1759500111124095251, 
0.06025451421737671, 0.27932077646255493, 0.04162784384223257, 1759500111154112971, 
-0.15703094005584717, -0.284309446811676, 0.020225243321148802, 1759500111184209334, 
0.083404541015625, -0.044291794300079346, 0.030543003207768937, 1759500111214293683, 
0.18185371160507202, 0.36444777250289917, 0.03757727145473903, 1759500111244591598, 
0.25271672010421753, -0.0731956958770752, 0.030000603780956054, 1759500111276361412, 
-0.07987630367279053, 0.2290971875190735, 0.025548667050676807, 1759500111307156491, 
0.28928565979003906, 0.33366096019744873, 0.038647053019927165, 1759500111334615920, 
-0.5976648330688477, -0.5311998128890991, 0.03516281413969341, 1759500111364620071, 
-0.40838080644607544, 0.34084612131118774, 0.027394111580208505, 1759500111394657439, 
0.33713579177856445, -0.3500673770904541, 0.03379240986534323, 1759500111424768428, 
-0.36231905221939087, 0.06483948230743408, 0.02714102646818114, 1759500111454868916, 
-0.027003049850463867, 0.11807990074157715, 0.01910978001762125, 1759500111483904392, 
-0.1498827338218689, 0.031799495220184326, 0.01700004927625013, 1759500111515505195, 
0.17458415031433105, 0.21487551927566528, 0.021933486809248334, 1759500111546798078, 
-0.3749861717224121, -0.12314116954803467, 0.011595335941309617, 1759500111578192704, 
-0.2455957531929016, -0.0742495059967041, 0.028163113396257107, 1759500111605261993, 
0.015040934085845947, -0.23287177085876465, 0.03028284465287356, 1759500111635276839, 
-0.23780256509780884, -0.017476558685302734, 0.034389040800269735, 1759500111665372708, 
-0.3143928050994873, -0.16662341356277466, 0.020742341117581383, 1759500111695432755, 
0.07525491714477539, 0.1405901312828064, 0.035607618180510274, 1759500111725630683, 
-0.056182682514190674, 0.18168067932128906, 0.038781105209355064, 1759500111755516127, 
-0.2017589807510376, -0.08502417802810669, 0.014756845844984713, 1759500111786936183, 
0.06969749927520752, 0.047772884368896484, 0.04007116548059367, 1759500111818701270, 
-0.08121007680892944, 0.4663662910461426, 0.048148626039062545, 1759500111855771841, 
0.19068807363510132, -0.13468551635742188, 0.010646741699151604, 1759500111885812173, 
-0.12103646993637085, 0.012583374977111816, 0.03136840217903516, 1759500111915904285, 
0.40349966287612915, 0.5824397802352905, 0.04666341377416236, 1759500111945799980, 
-0.2260812520980835, 0.08833211660385132, 0.01996892242347995, 1759500111978702550, 
0.4672066569328308, 0.4149411916732788, 0.045347015787131746, 1759500112006150014, 
0.1017141342163086, -0.16766202449798584, 0.03853050544417418, 1759500112036174029, 
0.15908992290496826, -0.03934299945831299, 0.033234728291431634, 1759500112066227327, 
-0.8928136825561523, 0.17512863874435425, 0.03187327363249776, 1759500112096324069, 
-1.4044071435928345, 0.3996526002883911, 0.06849560114091868, 1759500112126425865, 
-0.663155734539032, -0.7075717449188232, 0.019154023297395992, 1759500112156494200, 
-0.2940165400505066, 0.5178443193435669, 0.02236696840835845, 1759500112187392292, 
1.210808515548706, -0.4109571576118469, 0.04103083032343186, 1759500112219125726, 
-0.22787487506866455, -0.7801923155784607, 0.09485964485318879, 1759500112248723739, 
0.3835081458091736, 0.2436537742614746, 0.09430845293618252, 1759500112276020337, 
-1.0321060419082642, -0.10282385349273682, 0.040645710676558804, 1759500112307062721, 
-0.7770043611526489, -0.16163116693496704, 0.03447181888034268, 1759500112336937271, 
0.09612470865249634, -0.4088086485862732, 0.03688146354497489, 1759500112367016799, 
-0.10476154088973999, -0.31979209184646606, 0.019999068999101324, 1759500112397032671, 
-0.3718108534812927, -0.11262565851211548, 0.02793648201669093, 1759500112427093065, 
0.12925869226455688, -0.13215792179107666, 0.03333214928944017, 1759500112459004055, 
0.11322581768035889, 0.06966489553451538, 0.04509494145291871, 1759500112490645858, 
0.4515455961227417, 0.25421690940856934, 0.013356990937916034, 1759500112517434258, 
-0.24362963438034058, -0.2951560616493225, -0.002893534354280757, 1759500112547388053, 
0.006107985973358154, 0.4328586459159851, 0.04202082978443601, 1759500112577481947, 
0.738569974899292, -0.13312774896621704, 0.028150739581395353, 1759500112607490876, 
0.5128088593482971, 0.29813891649246216, 0.009567961593059292, 1759500112637553322, 
-0.02347099781036377, 0.23352408409118652, 0.03663571901137623, 1759500112667640304, 
0.33448487520217896, -0.3738514184951782, 0.029296934405032046, 1759500112698726056, 
0.000560760498046875, 0.6755729913711548, -0.0005133780603762769, 1759500112731063716, 
0.048729777336120605, -0.3647286295890808, 0.049627386732832755, 1759500112757980663, 
0.18699318170547485, -0.6070881485939026, 0.0356333312811183, 1759500112788042810, 
-0.6470921039581299, 0.26366496086120605, 0.01694899599791474, 1759500112817985739, 
-0.3397405743598938, -0.185169517993927, 0.05675118920779442, 1759500112848043656, 
0.013829588890075684, 0.275221586227417, 0.05498213576603854, 1759500112878146572, 
0.11830729246139526, 0.025668859481811523, 0.02354367860978709, 1759500112908209610, 
-0.027522802352905273, -0.09911388158798218, 0.04779225950156491, 1759500112939016522, 
-0.29607659578323364, -0.17869365215301514, 0.07179241564917116, 1759500112970973439, 
0.3543449640274048, -0.1894305944442749, 0.044228800108940335, 1759500112998495252, 
-0.007005512714385986, -0.07623767852783203, 0.02862471162773388, 1759500113028499144, 
0.38535892963409424, -0.21430569887161255, 0.04582537279042419, 1759500113059188727, 
-0.41950279474258423, 0.3388438820838928, 0.0010261473277044183, 1759500113089189284, 
0.18219643831253052, 0.0937235951423645, -0.010823929733895262, 1759500113119409022, 
-0.914010763168335, -0.2631170153617859, 0.006884573066042894, 1759500113149268396, 
0.11154574155807495, 0.20432424545288086, 0.009634741200203058, 1759500113179575145, 
-0.2572000026702881, -0.6651619672775269, 0.015398394372849377, 1759500113210695436, 
0.2950959801673889, 0.08880454301834106, 0.04502448248730612, 1759500113241440498, 
0.697637140750885, 0.2918611168861389, 0.018323039927466072, 1759500113269329369, 
0.35194045305252075, -0.03217589855194092, -0.013338374706955168, 1759500113299380211, 
0.16459006071090698, 0.18351352214813232, -0.0005368811061592061, 1759500113329429398, 
0.21397364139556885, 0.4355037212371826, 0.01390199524152361, 1759500113359498610, 
0.7493149042129517, -0.2974490523338318, 0.031127090723089605, 1759500113389495664, 
-0.1185263991355896, 0.2617564797401428, 0.03375730681583249, 1759500113419580159, 
-0.4501301646232605, 0.4081323742866516, 0.03946880154441012, 1759500113450941119, 
-0.05780726671218872, -0.12186765670776367, 0.0382377247477416, 1759500113482736571, 
-0.18488150835037231, 0.051853179931640625, 0.025344249082284685, 1759500113509643643, 
-0.296194851398468, 0.1360408067703247, 0.0048314765393173646, 1759500113539649609, 
-0.3740798830986023, -0.4144240617752075, 0.025897641027403193, 1759500113569719996, 
