acc_x, acc_y, angular_z, stamp, 
0.00977027416229248, -0.0058956146240234375, -3.642348146732989e-10, 1759498910027204355, 
0.004403352737426758, 0.022662997245788574, -2.287172575902624e-06, 1759498910053268970, 
-0.006423354148864746, -0.015250086784362793, -1.8619451381097978e-10, 1759498910084576604, 
-0.0028219223022460938, 0.011373162269592285, -1.2911059318926488e-10, 1759498910114371982, 
-0.027754783630371094, 0.014925777912139893, -1.0559397066998463e-10, 1759498910144665807, 
-0.00767672061920166, 0.0020862221717834473, -8.118385993608836e-11, 1759498910174575231, 
0.019516408443450928, 0.009321331977844238, -8.033853056448986e-11, 1759498910204811435, 
0.028422117233276367, 0.023543894290924072, -4.2398246987988006e-11, 1759498910235291779, 
-0.025916099548339844, -0.01969313621520996, 4.8241486919537374e-11, 1759498910294939548, 
0.017067670822143555, -0.0002231001853942871, 4.64696743804684e-11, 1759498910325396153, 
0.00640338659286499, 0.014225125312805176, 5.228597852665022e-11, 1759498910355500986, 
0.008179783821105957, 0.019527733325958252, 2.635538236565403e-06, 1759498910378117035, 
-0.004665076732635498, -0.0004993677139282227, 6.816261460300297e-11, 1759498910445518743, 
0.00081634521484375, 0.019050896167755127, 6.823670387471062e-11, 1759498910475584022, 
0.020827114582061768, 0.01399773359298706, 9.340592645543461e-11, 1759498910507260194, 
-0.024377644062042236, -0.020767509937286377, 1.0857039088296107e-10, 1759498910538015934, 
-0.011262059211730957, 0.024107038974761963, 1.989173931715333e-06, 1759498910595715332, 
0.04304128885269165, -0.0011197328567504883, 1.9894532181758433e-06, 1759498910625680447, 
0.035812556743621826, -0.004961252212524414, 1.982510190870655e-06, 1759498910655751676, 
0.00864475965499878, -0.026798009872436523, 1.987848376036022e-06, 1759498910685741601, 
-0.016364634037017822, 0.003972768783569336, 3.2389887595080135e-10, 1759498910715866365, 
0.04816257953643799, 0.03806746006011963, 1.9182079947759437e-06, 1759498910746944079, 
0.02592378854751587, 0.005201280117034912, 1.8654930828721107e-06, 1759498910778897988, 
-0.024743318557739258, 0.003924906253814697, 2.20281493223062e-06, 1759498910805956269, 
-0.03578394651412964, -0.007028400897979736, -7.632256510836753e-11, 1759498910835986566, 
0.01997363567352295, 0.03623145818710327, 1.982078284018824e-06, 1759498910866057705, 
0.027102530002593994, 0.030985653400421143, -7.042593396859789e-11, 1759498910896124541, 
-0.00741201639175415, -0.01610034704208374, -1.406533077535273e-10, 1759498910926232811, 
-0.018093347549438477, -0.03340470790863037, -1.561186731090935e-10, 1759498910956333147, 
-0.0071198344230651855, 0.020357131958007812, -7.022672551729335e-11, 1759498910986985075, 
0.02365553379058838, 0.01150667667388916, -1.8173703029182227e-11, 1759498911019617943, 
0.04681849479675293, 0.007869184017181396, -2.977486817538109e-11, 1759498911046477757, 
-0.035939931869506836, -0.02627032995223999, -4.614293551662174e-11, 1759498911076540256, 
-0.014123678207397461, 0.022531211376190186, -7.691563874135037e-12, 1759498911106610473, 
0.054272234439849854, 0.0032612085342407227, 9.72263738752841e-13, 1759498911136749146, 
0.03244292736053467, -0.01295560598373413, 1.0911652437363771e-11, 1759498911166804268, 
-0.011077284812927246, -0.005972027778625488, -1.969353913589661e-06, 1759498911197069724, 
-0.030742347240447998, 0.033818602561950684, 6.296788039277656e-11, 1759498911227057875, 
0.028647422790527344, 0.0034013986587524414, 4.069863548925362e-11, 1759498911259161509, 
0.006836235523223877, -0.04677659273147583, 5.445763882442416e-11, 1759498911287062402, 
0.010009467601776123, -0.016468942165374756, -1.9832882798554487e-06, 1759498911317114188, 
-0.018412470817565918, 0.004029333591461182, 1.717680800750471e-10, 1759498911347147574, 
-0.00025200843811035156, -0.0045702457427978516, 9.562355122448311e-11, 1759498911369327903, 
0.030039966106414795, 0.009354591369628906, -1.569365231400982e-06, 1759498911407302760, 
-0.007735848426818848, -0.025878489017486572, -1.9822859515971858e-06, 1759498911437368003, 
-0.006070435047149658, 0.0045247673988342285, 2.8238928265976353e-10, 1759498911467434359, 
0.0031585693359375, 0.019369781017303467, -1.8619846736077981e-06, 1759498911499441642, 
0.0444377064704895, 0.016170203685760498, -1.8625941518627973e-06, 1759498911531438278, 
-0.01525193452835083, -0.012728691101074219, -2.2666995555441204e-06, 1759498911557728949, 
-0.047267913818359375, -0.008206665515899658, -1.9872073415753493e-06, 1759498911587716359, 
-0.007416844367980957, 0.0027533769607543945, 2.835818164311365e-10, 1759498911617808058, 
0.0016145706176757812, -0.011899769306182861, -2.0545604550190307e-06, 1759498911646817127, 
0.030248820781707764, -0.013289153575897217, 1.7215631985090886e-10, 1759498911677957525, 
-0.031206369400024414, 0.0005617737770080566, 3.1869705030444784e-10, 1759498911707960942, 
-0.012880146503448486, -0.004507780075073242, -1.9183142269496917e-06, 1759498911739028701, 
0.03765857219696045, 0.018816351890563965, -1.865917496815227e-06, 1759498911770971730, 
0.0214729905128479, -0.018905043601989746, -2.1836577783550697e-06, 1759498911798267093, 
-0.003958165645599365, -0.015637636184692383, -2.056515005218887e-06, 1759498911827248802, 
-0.01456916332244873, 0.011732101440429688, 1.0135842000838532e-10, 1759498911858335085, 
0.005240738391876221, 0.03499263525009155, -1.9851387310277516e-06, 1759498911888359821, 
0.03175032138824463, 0.004171311855316162, -1.971069058397206e-06, 1759498911918597739, 
-0.03308767080307007, -0.011526107788085938, 2.798687497901796e-10, 1759498911948667052, 
-0.006299018859863281, -0.022551238536834717, -1.929548126919849e-06, 1759498911979552407, 
0.002995789051055908, 0.033403754234313965, -1.8974185082462545e-06, 1759498912010961913, 
0.01909506320953369, 0.005983591079711914, 1.8830417338606668e-10, 1759498912037847700, 
0.0133436918258667, -0.015804827213287354, 1.9682493901953008e-10, 1759498912068780330, 
-0.03510153293609619, 0.0220644474029541, -2.0513810021145717e-06, 1759498912097832871, 
-0.01512455940246582, 0.007332026958465576, 1.34613276668828e-10, 1759498912128945992, 
0.026531100273132324, 0.025365769863128662, 4.78497357243564e-11, 1759498912159037350, 
0.0031359195709228516, 0.011548995971679688, -0.001642728603462444, 1759498912189189269, 
-0.01953810453414917, -0.033819377422332764, -0.00023851711195849596, 1759498912219175301, 
-0.14767718315124512, 0.46964168548583984, 0.04728719947545907, 1759498912251674495, 
0.03854459524154663, 0.27400481700897217, 0.4247126647230114, 1759498912281527765, 
-0.42238175868988037, 1.232670545578003, 0.7752438457672439, 1759498912309697668, 
-0.48578691482543945, 0.22201436758041382, 1.0992642759254776, 1759498912361724773, 
0.22683000564575195, 0.3345763683319092, 1.4852758052571375, 1759498912399867115, 
-0.5132079720497131, 0.13911104202270508, 1.615510602962885, 1759498912429652549, 
0.5236654877662659, 0.4992203116416931, 1.8272751281436421, 1759498912458850982, 
-1.0518261194229126, -0.05585604906082153, 1.7912502027022952, 1759498912491649867, 
0.5234951972961426, 0.028805792331695557, 2.0020459702026767, 1759498912522751101, 
0.2080661654472351, -0.0007292032241821289, 2.3392233313999387, 1759498912549900307, 
0.13095295429229736, -0.21160441637039185, 2.0385335837316694, 1759498912579973679, 
0.06921118497848511, -0.7258474230766296, 1.945297667236358, 1759498912610050414, 
-0.17702573537826538, 0.2384243607521057, 1.8766554474710182, 1759498912640098854, 
0.20947366952896118, 0.33113300800323486, 1.9012992818463665, 1759498912670204848, 
-0.14874589443206787, 0.15291249752044678, 1.9200054575091072, 1759498912700209023, 
-0.04310178756713867, 0.010276377201080322, 1.8073985800154986, 1759498912731010085, 
0.17250901460647583, -0.025439918041229248, 1.5992108373062002, 1759498912763287317, 
-0.4020134210586548, -0.5972899198532104, 1.7919874477913065, 1759498912790478603, 
-0.2568132281303406, -0.03427797555923462, 1.5542855961924573, 1759498912820488955, 
0.24139422178268433, -0.18044894933700562, 1.4413064772689628, 1759498912850611197, 
-0.6549815535545349, -0.09809863567352295, 1.295209144536746, 1759498912880666444, 
-0.4407537579536438, -0.46499890089035034, 1.2500452917785274, 1759498912910755805, 
0.31146150827407837, 0.4095335602760315, 1.2283550370871181, 1759498912940868513, 
-0.7574307322502136, -0.3118666410446167, 1.2029651519848577, 1759498912971007895, 
0.7643543481826782, -0.6657083630561829, 1.1012089843810395, 1759498913003568561, 
0.2102678418159485, 0.5804019570350647, 1.246392494434656, 1759498913031157661, 
-0.5422536134719849, -0.16398358345031738, 1.0683188345731898, 1759498913061181071, 
-0.0018904805183410645, -0.2160128355026245, 1.0156963855157382, 1759498913091136856, 
0.22755426168441772, 0.40804147720336914, 1.0558610223621725, 1759498913121172346, 
0.5280928611755371, 0.23681282997131348, 1.2189493851919502, 1759498913151264608, 
0.11654460430145264, 0.5114396214485168, 1.4394518894862387, 1759498913180322564, 
-0.03797858953475952, -0.02185004949569702, 1.4568588799805473, 1759498913211412412, 
0.0683249831199646, -0.1908974051475525, 1.4253325618382011, 1759498913243341503, 
-0.42391449213027954, -0.3338557481765747, 1.3993119586442098, 1759498913273572826, 
-0.028179824352264404, -0.04932403564453125, 1.2279452537323505, 1759498913301692589, 
-0.4295613169670105, -0.4893764853477478, 0.9138326149447529, 1759498913331697060, 
-0.5419727563858032, -0.14581668376922607, 0.7614210587503489, 1759498913361733447, 
0.22356301546096802, 0.015643537044525146, 0.7365547605465222, 1759498913390814836, 
0.24376237392425537, 0.11348974704742432, 0.6832261610607032, 1759498913421883996, 
-0.03539818525314331, 0.022049129009246826, 0.7687993073988036, 1759498913451958658, 
-0.20115876197814941, -0.19907015562057495, 0.7704911736848477, 1759498913483358351, 
-0.3673744201660156, 0.20189118385314941, 0.7681548813404788, 1759498913515761643, 
0.6218461990356445, 0.4052320122718811, 1.0621794237221647, 1759498913542199322, 
0.5316208600997925, -0.10985392332077026, 1.0796971658183867, 1759498913572202196, 
0.7391983270645142, 0.3595271110534668, 1.1370800467448319, 1759498913602281234, 
-0.7226454019546509, 0.030804872512817383, 1.0830541421685296, 1759498913631366310, 
-0.6205437779426575, -0.9272994995117188, 0.9444517474486376, 1759498913662406133, 
-0.5042614340782166, 0.5389070510864258, 0.8368143676020786, 1759498913692552309, 
-0.46118152141571045, 0.18601244688034058, 0.7498948749443569, 1759498913723617657, 
-0.7319653630256653, -0.926653265953064, 0.6670051722102085, 1759498913755086342, 
-0.012588262557983398, 0.41109174489974976, 0.6727263906538832, 1759498913782748907, 
-0.1432519555091858, -0.0912289023399353, 0.6102348496489041, 1759498913812870707, 
0.30689120292663574, -0.03692436218261719, 0.5750832815615252, 1759498913842801577, 
-0.16505718231201172, 0.2036389708518982, 0.5336185027160679, 1759498913872914761, 
0.1746351718902588, -0.44625401496887207, 0.541976211441491, 1759498913903004595, 
-0.0110931396484375, 0.019066929817199707, 0.5129417601358895, 1759498913933370903, 
-0.12409406900405884, 0.17762142419815063, 0.5037901629643257, 1759498913963643382, 
0.01676887273788452, -0.2497190237045288, 0.4879151566013606, 1759498913995117114, 
-0.24023711681365967, 0.1110684871673584, 0.510861337244912, 1759498914025883960, 
-0.44971930980682373, -0.01707470417022705, 0.5855196117547244, 1759498914053398462, 
-0.07451391220092773, -0.18287736177444458, 0.5490226714901061, 1759498914082369537, 
0.01617223024368286, -0.06496983766555786, 0.4812544820159654, 1759498914113521479, 
0.21263086795806885, 0.08515238761901855, 0.4993051089508571, 1759498914143540196, 
0.012858569622039795, -0.020015954971313477, 0.5103941178723935, 1759498914173630942, 
-0.3412284255027771, -0.3054152727127075, 0.5338081462148433, 1759498914203716658, 
-0.06932061910629272, 0.015546917915344238, 0.47700905229225865, 1759498914235108000, 
-0.23279768228530884, -0.05231207609176636, 0.43202500015694456, 1759498914267126218, 
-0.03569608926773071, -0.04085344076156616, 0.5103415478492895, 1759498914293916083, 
-0.06836700439453125, -0.17745822668075562, 0.39328959780968786, 1759498914323950522, 
-0.4710027575492859, -0.28017330169677734, 0.3995719970962936, 1759498914354051546, 
0.3156369924545288, 0.11733013391494751, 0.43216327133796884, 1759498914384261464, 
0.0943899154663086, 0.0776633620262146, 0.4486625069559424, 1759498914414192758, 
0.23760360479354858, -0.23606091737747192, 0.46832827374332514, 1759498914444203183, 
0.36426860094070435, 0.11297714710235596, 0.3915921589647481, 1759498914475560738, 
-0.24945467710494995, -0.2546105980873108, 0.4114007120074533, 1759498914507348864, 
0.04019421339035034, 0.20237433910369873, 0.4659688334898605, 1759498914534493976, 
-0.2158287763595581, -0.03590506315231323, 0.4029864133333006, 1759498914564529208, 
0.16796904802322388, -0.18256181478500366, 0.38178522966209627, 1759498914594566872, 
0.2660213112831116, 0.06667888164520264, 0.35995609384683663, 1759498914624635774, 
-0.06011861562728882, -0.2293371558189392, 0.40702967336685514, 1759498914654798509, 
0.12306100130081177, 0.10150325298309326, 0.400122691618542, 1759498914684806965, 
0.33576250076293945, 0.014274537563323975, 0.37140345621510057, 1759498914715520148, 
-0.12427020072937012, -0.11916989088058472, 0.38874739763868144, 1759498914747166998, 
-0.0119972825050354, 0.1126108169555664, 0.47608871729101154, 1759498914775071003, 
-0.09087181091308594, -0.020448029041290283, 0.4210888771588884, 1759498914805689518, 
-0.0881006121635437, -0.029170870780944824, 0.3883572784299824, 1759498914835868991, 
-0.03366023302078247, -0.15024107694625854, 0.36872583033597034, 1759498914864860181, 
-0.027337849140167236, 0.04111868143081665, 0.34496835150410365, 1759498914894839886, 
-0.02300018072128296, 0.007885515689849854, 0.3354431480277407, 1759498914925771044, 
0.2198619246482849, 0.05416518449783325, 0.34028209799076997, 1759498914954821317, 
0.06564116477966309, -0.02952110767364502, 0.3235928767564426, 1759498914987587109, 
-0.06296300888061523, -0.10553431510925293, 0.37010380928954384, 1759498915017994541, 
-0.002833425998687744, -0.23654216527938843, 0.375134326003318, 1759498915044848400, 
-0.36950963735580444, -0.1673802137374878, 0.32858466012608817, 1759498915074853100, 
0.136113703250885, 0.07057064771652222, 0.311232278561819, 1759498915105880697, 
-0.06302845478057861, 0.04241907596588135, 0.3104296729467293, 1759498915135994291, 
0.17592108249664307, -0.21280890703201294, 0.35607572027279427, 1759498915165982608, 
0.1094357967376709, 0.06902152299880981, 0.33675013606230797, 1759498915196052539, 
0.05544161796569824, 0.027505874633789062, 0.3321224862768013, 1759498915227069824, 
0.0769537091255188, 0.04533851146697998, 0.32263910046996375, 1759498915259582959, 
0.008179545402526855, -0.08909279108047485, 0.3695543728212798, 1759498915286201693, 
-0.08939152956008911, 0.021761536598205566, 0.33064475395479864, 1759498915316197220, 
0.05462443828582764, -0.025455057621002197, 0.29981840202768406, 1759498915346300887, 
-0.06814420223236084, -0.07653403282165527, 0.2724549501457631, 1759498915376354505, 
-0.02921915054321289, -0.17198359966278076, 0.29501900736421677, 1759498915406447188, 
0.5218283534049988, -0.0018090605735778809, 0.26747517067296583, 1759498915436531623, 
-0.28797292709350586, 0.07538217306137085, 0.2579898607505042, 1759498915467314069, 
-0.020928025245666504, -0.03544408082962036, 0.2810910683760827, 1759498915499624657, 
-0.09024733304977417, -0.04098087549209595, 0.3292271575224312, 1759498915526785271, 
-0.19459885358810425, -0.08480805158615112, 0.29600121413202696, 1759498915556763783, 
0.02595454454421997, -0.11404687166213989, 0.29456253882939715, 1759498915586929335, 
0.2806238532066345, 0.04528498649597168, 0.27069110177362005, 1759498915617023500, 
-0.4135737419128418, 0.10378372669219971, 0.2699731484775539, 1759498915647036123, 
0.19202786684036255, -0.2701844573020935, 0.276712951649051, 1759498915677070402, 
-0.2166229486465454, -0.11225521564483643, 0.27499115270280977, 1759498915707125609, 
0.25168943405151367, 0.06936341524124146, 0.26758878746688275, 1759498915739640584, 
0.05050474405288696, 0.04852932691574097, 0.29037098463994937, 1759498915769268646, 
-0.2226225733757019, -0.2466435432434082, 0.30103612952067255, 1759498915797325288, 
-0.40755051374435425, 0.13046681880950928, 0.25507630225883127, 1759498915827505484, 
0.27614104747772217, 0.0030924081802368164, 0.23434191925267064, 1759498915849567210, 
-0.15157592296600342, -0.1075599193572998, 0.29682992123672125, 1759498915887517760, 
0.19351983070373535, 0.1138458251953125, 0.25921607611028896, 1759498915917579917, 
0.20039182901382446, -0.07913011312484741, 0.21766533471085905, 1759498915947640819, 
-0.22513651847839355, -0.04562664031982422, 0.23951538581802004, 1759498915979181271, 
-0.09531909227371216, 0.04381918907165527, 0.23224625755268902, 1759498916011314178, 
-0.24793773889541626, -0.20293664932250977, 0.30576847525284495, 1759498916037947980, 
0.06490457057952881, 0.09210777282714844, 0.2983896811840788, 1759498916067948244, 
-0.22281700372695923, 0.017603576183319092, 0.2494305307345365, 1759498916097999577, 
-0.4101181626319885, -0.39732468128204346, 0.2504622847374596, 1759498916128046764, 
-0.4509919285774231, 0.3228873014450073, 0.26769887015408705, 1759498916158101387, 
-0.1639728546142578, -0.12602967023849487, 0.2597266070454873, 1759498916188266094, 
0.13943839073181152, -0.19534075260162354, 0.22678119936852484, 1759498916219212283, 
-0.17920029163360596, 0.04104417562484741, 0.21091424535666195, 1759498916251197401, 
-0.0709834098815918, 0.08431339263916016, 0.22718251657141306, 1759498916278466788, 
-0.24184191226959229, -0.1797504425048828, 0.22274044411411123, 1759498916308474534, 
0.23210525512695312, -0.011951088905334473, 0.22211909553613354, 1759498916338527126, 
0.09230399131774902, -0.022556304931640625, 0.23239342459110246, 1759498916368611666, 
0.025455176830291748, -0.22534102201461792, 0.26049571369866864, 1759498916398697820, 
-0.1798667311668396, 0.24009978771209717, 0.26798148864530674, 1759498916428808252, 
0.10191911458969116, -0.013331472873687744, 0.25271376047493754, 1759498916459648523, 
-0.27970701456069946, -0.30839061737060547, 0.225537413965324, 1759498916491196353, 
-0.1105242371559143, 0.07209712266921997, 0.25556876276975715, 1759498916519025572, 
-0.10959517955780029, -0.030144989490509033, 0.22027223802416382, 1759498916549133117, 
0.17925918102264404, -0.1155848503112793, 0.17502844201042908, 1759498916579187653, 
-0.12684780359268188, 0.07320255041122437, 0.1644779814297277, 1759498916609236951, 
-0.0943496823310852, -0.14196562767028809, 0.22015504925570034, 1759498916639483457, 
-0.21375948190689087, -0.12586849927902222, 0.25350589008662616, 1759498916669422497, 
0.05856269598007202, -0.0011251568794250488, 0.2669710216026046, 1759498916699452796, 
-0.31451332569122314, -0.03017270565032959, 0.21440944306207382, 1759498916731216814, 
0.03029608726501465, -0.042153775691986084, 0.19737646033109915, 1759498916761615359, 
-0.10357463359832764, -0.08442801237106323, 0.2498883869831095, 1759498916789564752, 
-0.1919335126876831, -0.061002492904663086, 0.24212865285267168, 1759498916819712910, 
0.03316092491149902, 0.09956192970275879, 0.19267276025414856, 1759498916849771794, 
-0.15261375904083252, -0.09040015935897827, 0.2014396886725323, 1759498916879798542, 
0.3609418272972107, -0.06020289659500122, 0.21829988523298693, 1759498916909915785, 
0.02969682216644287, 0.0587729811668396, 0.21000854953904174, 1759498916939959190, 
0.27949851751327515, -0.2750272750854492, 0.2281618353643362, 1759498916970843755, 
-0.3461351990699768, -0.09096527099609375, 0.18403165038310673, 1759498917003426590, 
-0.20108264684677124, 0.19015324115753174, 0.20800388321940208, 1759498917030281140, 
-0.09906899929046631, 0.07871299982070923, 0.20841320067844096, 1759498917060204670, 
-0.25539255142211914, -0.32749027013778687, 0.19445265517667487, 1759498917090318779, 
-0.12836307287216187, -0.005980551242828369, 0.16398504693575844, 1759498917120368285, 
0.15355217456817627, 0.15863871574401855, 0.18271988571141393, 1759498917150404675, 
-0.017955482006072998, 0.06190216541290283, 0.19645425951173512, 1759498917180436797, 
-0.1354449987411499, -0.11718243360519409, 0.2083290311901999, 1759498917210292112, 
-0.13705021142959595, -0.11153703927993774, 0.18674215591402274, 1759498917243508188, 
-0.21275508403778076, -0.14581727981567383, 0.23006511482957195, 1759498917270789627, 
0.17721247673034668, 0.12781864404678345, 0.19240278767089544, 1759498917300742698, 
-0.15798598527908325, 0.02356785535812378, 0.18499071799580663, 1759498917330887704, 
0.08310955762863159, -0.20735347270965576, 0.1870048558889658, 1759498917360918459, 
-0.17824530601501465, 0.022648096084594727, 0.18273881348308516, 1759498917390989016, 
0.07119029760360718, 0.061452269554138184, 0.18090905475836655, 1759498917421025788, 
-0.04605412483215332, -0.08222419023513794, 0.17712011881161455, 1759498917451587224, 
0.4509350061416626, 0.05494004487991333, 0.16399849927978785, 1759498917484039033, 
-0.22165697813034058, 0.060810208320617676, 0.19872051113373188, 1759498917511342569, 
0.3073733448982239, -0.14624637365341187, 0.19474452908030787, 1759498917541269922, 
-0.15890491008758545, -0.05612391233444214, 0.18974778306725879, 1759498917571396650, 
-0.21268415451049805, 0.20423799753189087, 0.19670466996293154, 1759498917601417878, 
0.17990267276763916, 0.05564892292022705, 0.16341089135101783, 1759498917631499624, 
-0.32335132360458374, -0.42989611625671387, 0.1690028025453519, 1759498917661658884, 
0.23092186450958252, 0.1695324182510376, 0.1950257720858901, 1759498917691686804, 
-0.1582275629043579, 0.35768067836761475, 0.15911539352145354, 1759498917723396575, 
-0.17566263675689697, -0.42058658599853516, 0.15871293615471613, 1759498917754794460, 
0.15408509969711304, 0.03745537996292114, 0.2032929611619073, 1759498917781859386, 
-0.22990381717681885, 0.18434518575668335, 0.18087536865731002, 1759498917811924096, 
0.1337968111038208, -0.3002418875694275, 0.1951804903095528, 1759498917841968242, 
-0.24522703886032104, 0.18011295795440674, 0.19749591755166435, 1759498917872051387, 
0.17687147855758667, 0.15176284313201904, 0.14563867577131936, 1759498917902143704, 
0.05956375598907471, -0.28555816411972046, 0.14215979222690392, 1759498917932208126, 
0.10959160327911377, 0.05053788423538208, 0.18228983782815247, 1759498917963396611, 
-0.17727673053741455, 0.1991877555847168, 0.17428605336486153, 1759498917995883985, 
0.28148335218429565, -0.12833571434020996, 0.17824125692008455, 1759498918022473765, 
-0.13427871465682983, 0.05081164836883545, 0.13134932276327257, 1759498918052448861, 
0.006613254547119141, -0.14361733198165894, 0.1496103870414321, 1759498918082542252, 
0.1274058222770691, 0.009766042232513428, 0.18502562310302792, 1759498918111827951, 
0.017919540405273438, -0.011159300804138184, 0.19219408813413244, 1759498918142691988, 
-0.14264929294586182, 0.09355729818344116, 0.14324022494434235, 1759498918172814072, 
0.27793097496032715, -0.06651836633682251, 0.14763757159922725, 1759498918203952084, 
-0.1328791379928589, -0.2747642993927002, 0.18584295732166337, 1759498918235501600, 
-0.0796613097190857, 0.06621050834655762, 0.23447532889259842, 1759498918262959356, 
0.31658053398132324, 0.22627508640289307, 0.16878651653443905, 1759498918293052497, 
-0.286681592464447, -0.21989208459854126, 0.1499367345327784, 1759498918323100814, 
0.043554723262786865, 0.03710818290710449, 0.15643667387279156, 1759498918353181482, 
-0.19748491048812866, 0.13202285766601562, 0.16728821706298352, 1759498918383294620, 
0.32199954986572266, -0.2249823808670044, 0.14816987625665182, 1759498918413445090, 
-0.05148041248321533, 0.09001356363296509, 0.12814387618460835, 1759498918444014251, 
0.08888322114944458, -0.0233801007270813, 0.14564559421650605, 1759498918475383714, 
-0.2753240466117859, -0.041846275329589844, 0.1395532797205562, 1759498918505652915, 
0.14513975381851196, -0.059403955936431885, 0.172528776782003, 1759498918543601189, 
-0.24830400943756104, 0.10224330425262451, 0.15703425925050216, 1759498918573691356, 
-0.5053967833518982, 0.10258978605270386, 0.15422516984197382, 1759498918603800174, 
0.06925606727600098, -0.2458093762397766, 0.16258196699574531, 1759498918634823584, 
-0.1270695924758911, -0.11221873760223389, 0.16118932523089777, 1759498918667290651, 
0.16888970136642456, 0.20916759967803955, 0.15884380294817335, 1759498918694002860, 
-0.09552711248397827, 0.08033061027526855, 0.11019037112377025, 1759498918724049079, 
-0.10794347524642944, -0.19215238094329834, 0.14163307108790682, 1759498918754132352, 
0.0712931752204895, -0.0077784061431884766, 0.1607566175978493, 1759498918784153445, 
0.3497854471206665, 0.06454282999038696, 0.16521381243608335, 1759498918814289967, 
-0.08521366119384766, 0.08367890119552612, 0.16812110440820036, 1759498918844299532, 
0.07230448722839355, -0.08730900287628174, 0.14788002768447295, 1759498918874824836, 
-0.3422723412513733, -0.0775536298751831, 0.11099578676916054, 1759498918907343907, 
0.06164342164993286, -0.10368585586547852, 0.17936213178362026, 1759498918934550361, 
-0.03753632307052612, 0.06412142515182495, 0.13763787205939243, 1759498918964651603, 
-0.025592327117919922, -0.036258041858673096, 0.11089713448939012, 1759498918993621220, 
-0.20474594831466675, 0.05868154764175415, 0.12492347580265133, 1759498919024806142, 
0.19376087188720703, -0.27473413944244385, 0.1715572942309752, 1759498919053837419, 
0.2261030077934265, 0.10544627904891968, 0.14068241275824475, 1759498919084911568, 
-0.09256255626678467, 0.3155518174171448, 0.14433105173462774, 1759498919115887426, 
-0.1355292797088623, -0.14963114261627197, 0.11980499072019277, 1759498919147775667, 
-0.47716760635375977, -0.2899618148803711, 0.14062972055925865, 1759498919175101721, 
0.4592987895011902, 0.15590691566467285, 0.16537897636117724, 1759498919205125645, 
0.12930840253829956, 0.1713474988937378, 0.14561928396366963, 1759498919235883108, 
0.14568805694580078, -0.2239013910293579, 0.1339897195946229, 1759498919265907804, 
-0.3700079917907715, 0.07342058420181274, 0.10816205049594665, 1759498919295905070, 
-0.07912176847457886, -0.04340052604675293, 0.1254195437563362, 1759498919325973111, 
0.6176305413246155, -0.21793848276138306, 0.13772831525392748, 1759498919356008388, 
0.04088711738586426, 0.23708146810531616, 0.11949800400318268, 1759498919387645087, 
0.039205729961395264, 0.16561728715896606, 0.11288520787255821, 1759498919418156393, 
-0.16613513231277466, -0.21514469385147095, 0.13942881070689, 1759498919446006714, 
-0.16137081384658813, -0.2347257137298584, 0.16545771474266394, 1759498919476072286, 
0.1641024351119995, 0.3949587941169739, 0.14783949250164266, 1759498919506076394, 
0.43917059898376465, 0.12261170148849487, 0.094115818060681, 1759498919536110383, 
-0.2338731288909912, -0.606308102607727, 0.11912484617782157, 1759498919566165159, 
-0.18869876861572266, 0.14144796133041382, 0.15213651676839873, 1759498919596258595, 
-0.17228567600250244, 0.37800389528274536, 0.1235166313965068, 1759498919627399459, 
-0.18485277891159058, -0.2798047661781311, 0.11055605566106323, 1759498919660275687, 
0.039241135120391846, 0.09340918064117432, 0.15267374513671989, 1759498919696283250, 
0.16014426946640015, 0.22017443180084229, 0.13568825976664964, 1759498919726309107, 
0.14234578609466553, -0.32647705078125, 0.14562862071846852, 1759498919756373924, 
0.32859015464782715, 0.3026335835456848, 0.1465094943699451, 1759498919787813130, 
0.04161792993545532, 0.2454686164855957, 0.08266423391037446, 1759498919819702053, 
-0.475041925907135, -0.677776038646698, 0.09370522416944621, 1759498919846613069, 
-0.2272225022315979, 0.18041890859603882, 0.14621323426506808, 1759498919876670001, 
-0.16711562871932983, 0.26846933364868164, 0.1977986407003162, 1759498919906715719, 
0.41063767671585083, -0.02649790048599243, 0.14900866582402864, 1759498919936759663, 
-0.1976919174194336, -0.29709863662719727, 0.1071539474677167, 1759498919965911076, 
-0.2136784791946411, -0.17645370960235596, 0.10803283608413274, 1759498919996988666, 
0.18038254976272583, 0.3644745349884033, 0.12262162251091491, 1759498920027400761, 
-0.1747797131538391, 0.023044884204864502, 0.12342804639243107, 1759498920059384807, 
0.15951281785964966, -0.17906689643859863, 0.12149967710714916, 1759498920087236669, 
-0.17431235313415527, 0.055422961711883545, 0.12201365074158978, 1759498920117204679, 
0.07073354721069336, -0.20169919729232788, 0.14939461733505358, 1759498920147263263, 
-0.08392643928527832, 0.27562278509140015, 0.13064440475868264, 1759498920177347600, 
-0.31196129322052, 0.1471291184425354, 0.13388433913505288, 1759498920207483058, 
0.19552934169769287, -0.5210701823234558, 0.1429113930296579, 1759498920237533930, 
-0.2488660216331482, 0.06453573703765869, 0.13962642502393421, 1759498920267774244, 
0.10773628950119019, 0.3378639817237854, 0.11543803045804071, 1759498920300099704, 
0.27115368843078613, -0.25847023725509644, 0.08421027352825165, 1759498920328649260, 
-0.3259716033935547, -0.07885795831680298, 0.09480797736142269, 1759498920367773764, 
0.1223258376121521, 0.18536174297332764, 0.1563773934546214, 1759498920396849311, 
-0.14156287908554077, 0.07833051681518555, 0.13849651970566715, 1759498920428193928, 
0.045015156269073486, -0.10449600219726562, 0.1110280890928902, 1759498920459657078, 
0.08288657665252686, -0.007413029670715332, 0.10844644752764823, 1759498920491361565, 
0.1852574348449707, -0.063332200050354, 0.15792069890799945, 1759498920518195231, 
0.0945286750793457, 0.20195746421813965, 0.1180632588257828, 1759498920548183495, 
0.12356436252593994, 0.0807340145111084, 0.11495320126278856, 1759498920578259724, 
-0.06873178482055664, -0.17190062999725342, 0.1140652809517601, 1759498920608307383, 
-0.42010557651519775, -0.269389271736145, 0.1121113732885747, 1759498920638385199, 
0.39311957359313965, 0.1864040493965149, 0.12508224258119063, 1759498920668527748, 
-0.4754158854484558, 0.17926669120788574, 0.13692598776195258, 1759498920699406917, 
0.41616278886795044, -0.3708277940750122, 0.13337753498190189, 1759498920730828920, 
0.010849475860595703, -0.05521118640899658, 0.10880809251064656, 1759498920758747922, 
-0.0489467978477478, 0.05684196949005127, 0.13308203911078212, 1759498920787719107, 
0.21511340141296387, 0.2801286578178406, 0.10761826721878018, 1759498920811869704, 
-0.25783616304397583, -0.039211809635162354, 0.1212731881605248, 1759498920848886745, 
0.23794180154800415, -0.1425284743309021, 0.1253502394517457, 1759498920878988116, 
-0.10936945676803589, -0.02989649772644043, 0.11563042438553986, 1759498920909078512, 
-0.12528496980667114, 0.011320769786834717, 0.08536440463166811, 1759498920940002742, 
-0.06800830364227295, 0.04370296001434326, 0.06621291987416358, 1759498920971745323, 
-0.16186803579330444, -0.20084530115127563, 0.12560560233137819, 1759498920999247559, 
0.13015997409820557, -0.09172475337982178, 0.1256636912891592, 1759498921029322271, 
0.07129770517349243, 0.09682208299636841, 0.12797720003002047, 1759498921059345839, 
0.13048195838928223, 0.20957434177398682, 0.14085843881790386, 1759498921089432295, 
0.009651422500610352, -0.15045255422592163, 0.12156011240445957, 1759498921119553276, 
-0.08143669366836548, -0.2629240155220032, 0.08838934065167392, 1759498921149609073, 
-0.11182546615600586, 0.10724890232086182, 0.1109985885553831, 1759498921179670614, 
0.35872983932495117, 0.18417507410049438, 0.11538108768781827, 1759498921211450430, 
-0.07705390453338623, -0.12222200632095337, 0.09640190808957151, 1759498921242326645, 
-0.15134310722351074, -0.2081441879272461, 0.09159660904454231, 1759498921269907170, 
-0.15882301330566406, 0.04386228322982788, 0.07108535281736664, 1759498921299978881, 
0.09497886896133423, -0.09711307287216187, 0.09783376468588362, 1759498921330041151, 
0.1272057294845581, 0.08930277824401855, 0.08420057831920509, 1759498921360085975, 
0.2290385365486145, 0.027794361114501953, 0.08048301884217472, 1759498921390135088, 
-0.12489736080169678, -0.22052788734436035, 0.10397611150315135, 1759498921420200851, 
-0.21830540895462036, -0.032136499881744385, 0.1449520904610001, 1759498921452141979, 
0.08405494689941406, 0.28401243686676025, 0.12243455810963648, 1759498921483590656, 
-0.21636539697647095, -0.11352288722991943, 0.09401175776012988, 1759498921510407866, 
0.12033069133758545, -0.4737202525138855, 0.10242565345717249, 1759498921540547309, 
-0.10743415355682373, 0.34457898139953613, 0.09863451118131783, 1759498921570607465, 
0.021769404411315918, 0.470376193523407, 0.06303011708624143, 1759498921600619656, 
-0.08088600635528564, -0.6163907051086426, 0.053611574942394415, 1759498921630663809, 
-0.2902054786682129, -0.2601531147956848, 0.08678991312851811, 1759498921660728271, 
0.2863735556602478, 0.47842323780059814, 0.10201388834206788, 1759498921690511484, 
0.1453225016593933, 0.03959810733795166, 0.08547346241121523, 1759498921723595795, 
0.04147803783416748, -0.3784700036048889, 0.11501681712919741, 1759498921751097272, 
-0.17368829250335693, 0.14116311073303223, 0.11302755894929443, 1759498921781041849, 
-0.15464717149734497, 0.1636846661567688, 0.09960050111353068, 1759498921811143939, 
0.09443598985671997, -0.2925657629966736, 0.09931368930693645, 1759498921841148036, 
-0.010152161121368408, 0.17360466718673706, 0.10542395516131702, 1759498921871225517, 
0.0027889609336853027, 0.05445396900177002, 0.0711283566236002, 1759498921901564568, 
-0.05157822370529175, -0.27407413721084595, 0.07653362132027262, 1759498921931507694, 
0.11181646585464478, -0.003060281276702881, 0.09269502960835617, 1759498921964047378, 
-0.07745540142059326, 0.3297352194786072, 0.06594919136609277, 1759498921991696536, 
0.21016401052474976, -0.20194083452224731, 0.086307307768134, 1759498922021618875, 
-0.21278798580169678, -0.16444367170333862, 0.16392250431684272, 1759498922051905665, 
0.37331509590148926, 0.38761234283447266, 0.14324911230250778, 1759498922081798311, 
0.13149118423461914, 0.03883063793182373, 0.07547348586825363, 1759498922111891107, 
0.05129772424697876, -0.5678404569625854, 0.10101099659836642, 1759498922140812887, 
-0.21984326839447021, 0.16114270687103271, 0.11849000424316526, 1759498922171942003, 
0.29134368896484375, 0.24953186511993408, 0.11142030879140162, 1759498922203609102, 
0.020480692386627197, -0.16765153408050537, 0.08454241454084675, 1759498922234067176, 
0.25172919034957886, -0.04583829641342163, 0.0799471282891003, 1759498922262168989, 
0.021860241889953613, 0.02006453275680542, 0.1013889581746548, 1759498922292179987, 
0.16593116521835327, 0.009502530097961426, 0.09673016000346663, 1759498922322275593, 
-0.09945857524871826, 0.03652453422546387, 0.0810218812460927, 1759498922352314977, 
0.00733792781829834, 0.08049231767654419, 0.07488794586693023, 1759498922382392410, 
0.03146028518676758, -0.23365437984466553, 0.07742161893007307, 1759498922412513362, 
-0.19809222221374512, -0.06964874267578125, 0.07328308122467944, 1759498922443629669, 
-0.06998556852340698, 0.36022311449050903, 0.09036077303069834, 1759498922476213356, 
-0.4415077567100525, 0.013551533222198486, 0.16487256496569475, 1759498922502739337, 
-0.05543041229248047, -0.2844467759132385, 0.1478292928803503, 1759498922532727409, 
0.6014249920845032, -0.2642025351524353, 0.11881051627973946, 1759498922562772712, 
-0.066642165184021, 0.304889976978302, 0.10154396538439758, 1759498922592864322, 
0.013040900230407715, 0.004318833351135254, 0.10089364844738093, 1759498922622981724, 
0.10894596576690674, -0.08074551820755005, 0.0565219152990254, 1759498922653037949, 
-0.3429255485534668, -0.14421296119689941, 0.0850707298029762, 1759498922684158047, 
0.13193506002426147, 0.14218157529830933, 0.11270647242790664, 1759498922715721754, 
0.36359208822250366, 0.006148159503936768, 0.0898842915385551, 1759498922743252417, 
-0.2790777087211609, -0.1668635606765747, 0.08316146697635897, 1759498922773271944, 
-0.15736478567123413, -0.05110102891921997, 0.10856935271199414, 1759498922803351550, 
-0.335041880607605, 0.006268620491027832, 0.09313747337958675, 1759498922833446812, 
-0.048260509967803955, 0.021560072898864746, 0.07955075558147358, 1759498922863508346, 
0.32146286964416504, -0.006344795227050781, 0.09227323706170869, 1759498922893563656, 
0.01046055555343628, -0.08156090974807739, 0.08105305444577489, 1759498922924133133, 
0.16143304109573364, 0.07925164699554443, 0.06676042964466643, 1759498922955620443, 
-0.09788167476654053, 0.16698962450027466, 0.0825390763438192, 1759498922986286785, 
0.12694954872131348, -0.11220884323120117, 0.1048554666254545, 1759498923013953122, 
-0.001150965690612793, -0.1995832920074463, 0.08235455992025655, 1759498923043890457, 
0.4360382556915283, 0.04849386215209961, 0.09333320304752356, 1759498923073991677, 
-0.03247445821762085, 0.268854558467865, 0.10320115978679474, 1759498923104027422, 
0.054827749729156494, -0.13230645656585693, 0.08286506708538133, 1759498923134082677, 
-0.027545452117919922, -0.2511460781097412, 0.07211473541886675, 1759498923164209084, 
-0.22985714673995972, 0.0809401273727417, 0.05800002149294715, 1759498923195649270, 
-0.0004851818084716797, 0.11248636245727539, 0.08145879702934004, 1759498923226837744, 
-0.274588942527771, -0.11294066905975342, 0.13425157500434381, 1759498923254412824, 
0.35394489765167236, 0.00647050142288208, 0.10349602293288604, 1759498923284458663, 
-0.09214496612548828, 0.014021515846252441, 0.07162629168278199, 1759498923314524760, 
-0.08429193496704102, -0.21397769451141357, 0.07317782127717692, 1759498923344617079, 
0.2654181122779846, 0.0687677264213562, 0.09276083316978954, 1759498923374769747, 
-0.3022419810295105, 0.12010329961776733, 0.08840003868026598, 1759498923403855228, 
0.20111459493637085, -0.14963746070861816, 0.07956211174275192, 1759498923436120909, 
0.1920754313468933, -0.18713665008544922, 0.09268501603951008, 1759498923467897266, 
-0.40459614992141724, 0.22723346948623657, 0.09998927402147, 1759498923495024147, 
0.2685229182243347, 0.12889009714126587, 0.0679078221990486, 1759498923525035896, 
0.22057479619979858, -0.34757310152053833, 0.08728828421701194, 1759498923555038716, 
-0.11554372310638428, -0.09494519233703613, 0.1002106324670388, 1759498923585147327, 
0.0022982358932495117, 0.45358216762542725, 0.05141034388724275, 1759498923615297883, 
-0.1599116325378418, -0.1253775954246521, 0.044952837091241205, 1759498923645441403, 
-0.4232778549194336, -0.5252087712287903, 0.08790139295598302, 1759498923675632784, 
0.40694934129714966, 0.13122975826263428, 0.09386048433367952, 1759498923707596419, 
0.17380291223526, 0.4330887198448181, 0.08037886320580083, 1759498923735532746, 
0.15209954977035522, -0.3697991967201233, 0.09229226920432963, 1759498923766257729, 
-0.3780055046081543, -0.1201549768447876, 0.11658261816990337, 1759498923796264034, 
-0.026874423027038574, 0.26760900020599365, 0.07106865330416429, 1759498923826495335, 
-0.23492372035980225, -0.24206387996673584, 0.07151791291571791, 1759498923856374043, 
0.2180711030960083, -0.03769636154174805, 0.11844112815991693, 1759498923886372818, 
-0.4130702614784241, 0.09990251064300537, 0.09890722371911238, 1759498923916444174, 
0.3842088580131531, -0.20117658376693726, 0.0871434210395501, 1759498923948153728, 
-0.09731030464172363, 0.04385221004486084, 0.07212884831679664, 1759498923978510448, 
-0.13485699892044067, 0.10031694173812866, 0.06595345421187829, 1759498924006478480, 
-0.0918695330619812, -0.12385529279708862, 0.05621652135647819, 1759498924036388514, 
-0.1585686206817627, -0.2948225736618042, 0.09961533630044894, 1759498924066472920, 
0.28106504678726196, 0.3556240200996399, 0.09787012128070732, 1759498924096477033, 
-0.027126610279083252, 0.22025924921035767, 0.06036917467229724, 1759498924126575763, 
-0.15530526638031006, -0.6303865909576416, 0.07187398632459899, 1759498924156576830, 
-0.04351806640625, 0.08842813968658447, 0.10533961857854784, 1759498924186834851, 
-0.21635174751281738, 0.7258909940719604, 0.10753172474587004, 1759498924219574725, 
0.15241634845733643, -0.4315832257270813, 0.11095619414955933, 1759498924247056671, 
-0.2715137004852295, -0.4608374834060669, 0.0868613902466024, 1759498924276738495, 
0.010494232177734375, 0.197637677192688, 0.10006532805109346, 1759498924306789388, 
-0.15178817510604858, 0.21042633056640625, 0.05673498602903371, 1759498924336924372, 
-0.0009046792984008789, -0.053660452365875244, 0.0004799161372850389, 1759498924366007310, 
-0.10119783878326416, -0.2573363184928894, 0.03915418682488784, 1759498924397047434, 
0.509511411190033, 0.09743666648864746, 0.11324151789263336, 1759498924427703822, 
0.1051587462425232, 0.2370501160621643, 0.10849282861316628, 1759498924460052130, 
-0.0685049295425415, -0.15816736221313477, 0.06394317549957526, 1759498924487308743, 
-0.4323890209197998, -0.1990584135055542, 0.057161471388394024, 1759498924517290829, 
-0.12263607978820801, -0.08187514543533325, 0.12228060822055041, 1759498924547363537, 
0.10192614793777466, 0.009255826473236084, 0.09601457128654677, 1759498924577409540, 
0.2874448299407959, 0.17167562246322632, 0.03892964066629046, 1759498924607465619, 
-0.3207516670227051, -0.1279982328414917, 0.06290351483014144, 1759498924637537294, 
-0.6156964302062988, -0.2150915265083313, 0.09940084636154223, 1759498924667616410, 
0.294305682182312, 0.13421952724456787, 0.07793962407086732, 1759498924699913719, 
-0.2484598159790039, 0.29444265365600586, 0.07609301238096512, 1759498924729783992, 
0.3476477265357971, -0.2529788017272949, 0.10220462545633593, 1759498924756822063, 
-0.2146700620651245, -0.22501111030578613, 0.08922130121400547, 1759498924787877982, 
0.0193556547164917, 0.02512723207473755, 0.08759764638049668, 1759498924810711401, 
-0.1260744333267212, 0.21191465854644775, 0.08230433302233099, 1759498924848010352, 
-0.11481231451034546, -0.295792818069458, 0.04738985504528103, 1759498924878119534, 
0.04126131534576416, -0.2628708481788635, 0.045192542051863425, 1759498924908237714, 
-0.0887255072593689, 0.2745012640953064, 0.08884293392032924, 1759498924940531977, 
0.1666228175163269, 0.21346813440322876, 0.11035533941842514, 1759498924972087575, 
-0.14048850536346436, -0.08293700218200684, 0.07125244730245524, 1759498924998401117, 
-0.009230554103851318, -0.4687448740005493, 0.08796775154429755, 1759498925028435627, 
-0.003322899341583252, 0.06882524490356445, 0.10571731151884135, 1759498925058489566, 
0.1430145502090454, 0.2676692605018616, 0.07119678924289355, 1759498925088587263, 
0.02550119161605835, -0.16317802667617798, 0.05080686494836201, 1759498925118670458, 
-0.008515596389770508, -0.1700500249862671, 0.07300128142253981, 1759498925148766617, 
-0.11433684825897217, 0.04323732852935791, 0.08788307421146835, 1759498925179661291, 
-0.06525963544845581, 0.0872950553894043, 0.07685184893654724, 1759498925211650655, 
0.265693724155426, 0.036478638648986816, 0.06807793552869937, 1759498925239054938, 
-0.1272258162498474, -0.16372674703598022, 0.06673403162233994, 1759498925268978874, 
0.26016879081726074, -0.2497827410697937, 0.08682390938097574, 1759498925299062041, 
-0.0756148099899292, 0.2930871248245239, 0.06591638342719525, 1759498925329173633, 
0.055073082447052, 0.24226921796798706, 0.04647225253425714, 1759498925359271462, 
-0.07368141412734985, -0.4424923062324524, 0.05794642247624566, 1759498925389463246, 
0.5512561798095703, -0.26648736000061035, 0.09349085164996374, 1759498925420355036, 
-0.27598583698272705, 0.4527624845504761, 0.08357883015393758, 1759498925451656150, 
-0.3941836953163147, 0.3126513361930847, 0.07333351094882155, 1759498925479486122, 
0.0983583927154541, -0.47232139110565186, 0.08332088189696239, 1759498925509602841, 
-0.3856983780860901, -0.26479458808898926, 0.09641452486218793, 1759498925539629702, 
0.45078808069229126, 0.3937370181083679, 0.05668761887722678, 1759498925569763013, 
-0.005834221839904785, 0.10258626937866211, 0.03620086397175608, 1759498925599806312, 
0.15558552742004395, -0.24828588962554932, 0.056940046984921305, 1759498925630150051, 
-0.026788651943206787, -0.0079270601272583, 0.07398071659741129, 1759498925659990773, 
0.15192288160324097, 0.12524759769439697, 0.050039245378532805, 1759498925691730021, 
-0.16566741466522217, 0.010709524154663086, 0.07357416037939978, 1759498925719100388, 
0.09890824556350708, -0.096199631690979, 0.08405326136145774, 1759498925750273678, 
0.6411526203155518, -0.052867352962493896, 0.07587955035205576, 1759498925780164072, 
-0.08221083879470825, 0.0584370493888855, 0.06674013905254585, 1759498925810335658, 
-0.4636956453323364, 0.12360119819641113, 0.09998264510527338, 1759498925840295847, 
0.005078673362731934, -0.10955637693405151, 0.07441338034249641, 1759498925870563701, 
-0.300886332988739, -0.2876473069190979, 0.04031954206508932, 1759498925900461268, 
0.2343733310699463, 0.023618042469024658, 0.0741715683886521, 1759498925932363003, 
0.035744428634643555, 0.34511345624923706, 0.06656167074762344, 1759498925963877739, 
-0.34444546699523926, -0.11536985635757446, 0.044818314493876694, 1759498925991261333, 
0.016070306301116943, -0.5517961382865906, 0.05920964144357496, 1759498926021262156, 
0.13525468111038208, 0.22430604696273804, 0.0744353660225192, 1759498926051393981, 
0.1123509407043457, 0.4727068543434143, 0.051388040231871844, 1759498926081436088, 
0.13394427299499512, -0.47362107038497925, 0.061232514563007955, 1759498926111368204, 
-0.11703836917877197, -0.33839839696884155, 0.10456242654093299, 1759498926141332592, 
-0.05550384521484375, 0.31688880920410156, 0.07891389617463095, 1759498926171713517, 
-0.18008708953857422, 0.2111530900001526, 0.04012699817791508, 1759498926203912760, 
0.12079042196273804, -0.4581407904624939, 0.0813368165568856, 1759498926231472431, 
-0.07047992944717407, 0.022181689739227295, 0.10258857024045748, 1759498926261472913, 
0.25583285093307495, 0.3436475992202759, 0.1060231807161458, 1759498926291555559, 
0.31644129753112793, -0.09068238735198975, 0.06263114441158886, 1759498926321599022, 
-0.5811077952384949, -0.2989758253097534, 0.0464076480945069, 1759498926351663261, 
0.08462703227996826, 0.0853317379951477, 0.061098496284742516, 1759498926381642135, 
-0.24280685186386108, 0.15943247079849243, 0.05657904545491779, 1759498926411730092, 
0.6120230555534363, -0.13279587030410767, 0.04514411318904822, 1759498926444335375, 
-0.05759340524673462, -0.02373027801513672, 0.07094308645936896, 1759498926471800086, 
-0.05788487195968628, -0.07129859924316406, 0.09282994471540731, 1759498926501779368, 
0.09698975086212158, -0.05389446020126343, 0.08530100715412978, 1759498926531885617, 
0.07470637559890747, 0.1433832049369812, 0.07007173304819951, 1759498926562016131, 
0.5719957947731018, -0.07019609212875366, 0.06825164932605068, 1759498926592065152, 
-0.4117920398712158, -0.13280731439590454, 0.08405022126192405, 1759498926622110445, 
0.23584729433059692, -0.0676645040512085, 0.09509783301021596, 1759498926652213609, 
-0.07053929567337036, 0.2708626985549927, 0.04886446320546845, 1759498926682836564, 
-0.4705114960670471, -0.13282626867294312, 0.044570678996316164, 1759498926714993917, 
0.2154044508934021, -0.3005527853965759, 0.0644642774466502, 1759498926742422151, 
0.40481817722320557, 0.1933574080467224, 0.05550958996402383, 1759498926772435113, 
0.02166438102722168, 0.20509082078933716, 0.0658788307140783, 1759498926802524173, 
-0.3717164993286133, -0.21554547548294067, 0.08155073667635762, 1759498926832582526, 
-0.07843685150146484, -0.10076385736465454, 0.07982819397333478, 1759498926862942363, 
-0.10927826166152954, 0.026533424854278564, 0.09426840407988439, 1759498926892736249, 
0.30722200870513916, 0.1479787826538086, 0.0771294379145218, 1759498926923919379, 
-0.09919065237045288, -0.15466052293777466, 0.029213179786976257, 1759498926956204734, 
-0.11152631044387817, -0.3528570532798767, 0.060490725736496664, 1759498926982989390, 
0.04159677028656006, 0.1729791760444641, 0.10563635845044624, 1759498927012974640, 
0.3677869439125061, 0.1893787980079651, 0.05107789452091619, 1759498927042076983, 
0.019625484943389893, -0.11627954244613647, -0.009824189202322309, 1759498927073144540, 
0.05869811773300171, -0.3232851028442383, 0.045278109481268806, 1759498927103228973, 
0.2002021074295044, 0.10834705829620361, 0.1190702336490274, 1759498927133280690, 
-0.0063727498054504395, 0.4132373332977295, 0.09746567560127505, 1759498927164086977, 
0.0017738938331604004, -0.24889463186264038, 0.04848549777343349, 1759498927195781229, 
-0.3950798511505127, -0.3878450393676758, 0.07419883154996605, 1759498927223739041, 
0.38793426752090454, 0.20437592267990112, 0.10156966628832427, 1759498927253562757, 
-0.059022605419158936, 0.1456388235092163, 0.0712829491242395, 1759498927283619796, 
0.1569165587425232, -0.13020294904708862, 0.046150537337358195, 1759498927313692939, 
-0.15334635972976685, -0.1890389323234558, 0.03952617478298471, 1759498927343740241, 
-0.41596752405166626, -0.2623642086982727, 0.0564065799715801, 1759498927374102300, 
0.3094109296798706, 0.32955265045166016, 0.06843769539983018, 1759498927404382853, 
-0.3200680613517761, 0.2805255055427551, 0.05209208550853142, 1759498927435932225, 
0.332261860370636, -0.5267260670661926, 0.05121436199218851, 1759498927466128258, 
0.20085787773132324, -0.01510685682296753, 0.07636341640115563, 1759498927494366952, 
-0.14687049388885498, 0.6364277601242065, 0.06383492714461608, 1759498927524155669, 
0.003470003604888916, -0.11629313230514526, 0.03918577015963028, 1759498927554238523, 
0.31794947385787964, -0.6266795992851257, 0.06397802809971581, 1759498927584265551, 
-0.05761146545410156, 0.09354966878890991, 0.10041781808259406, 1759498927614414649, 
0.019430935382843018, 0.5951087474822998, 0.1012622493241694, 1759498927644459615, 
-0.1549586057662964, -0.2459549903869629, 0.057963905650408744, 1759498927675796749, 
-0.34749746322631836, -0.6703013181686401, 0.06204840635555368, 1759498927707904683, 
0.4008784890174866, 0.06161308288574219, 0.06774114102619366, 1759498927734732362, 
0.15351003408432007, 0.6414874792098999, -0.0007101663222224127, 1759498927764721397, 
0.3099147081375122, -0.22939783334732056, 0.030914131140507936, 1759498927794790226, 
-0.05997610092163086, -0.36224693059921265, 0.07277903989226997, 1759498927824989725, 
0.24752295017242432, 0.0802077054977417, 0.0692249637744373, 1759498927854915375, 
0.08566427230834961, 0.21001309156417847, 0.05402654536533999, 1759498927885011106, 
0.3765661120414734, -0.17558813095092773, 0.08582008024030403, 1759498927916288260, 
-0.027668476104736328, -0.04868197441101074, 0.0772834474208436, 1759498927947077296, 
0.2339913249015808, 0.01049119234085083, 0.04984624979370115, 1759498927975175198, 
-0.009611725807189941, -0.06215977668762207, 0.04307224567284988, 1759498928005236686, 
-0.3030608892440796, 0.08548355102539062, 0.08201596831878406, 1759498928035336934, 
0.04003030061721802, -0.03155982494354248, 0.06618522585172355, 1759498928065431841, 
-0.132318377494812, -0.2535932660102844, 0.02691065164248746, 1759498928095463258, 
0.14135491847991943, 0.09461915493011475, 0.024385927657310683, 1759498928125600408, 
-0.31784385442733765, 0.15441977977752686, 0.04127122800187145, 1759498928156400100, 
-0.06916958093643188, -0.15316128730773926, 0.062214758817159356, 1759498928186843982, 
0.5214798450469971, -0.38605964183807373, 0.08052566801499841, 1759498928215758674, 
-0.11664813756942749, 0.19039809703826904, 0.06966636742329053, 1759498928246383830, 
0.1127476692199707, 0.3210330605506897, 0.04586461363756449, 1759498928276426767, 
-0.010060131549835205, -0.3263775706291199, 0.03607702545373023, 1759498928306469440, 
-0.2627864480018616, -0.45921027660369873, 0.07806090305133959, 1759498928336465942, 
0.09840387105941772, 0.49376410245895386, 0.07517173597616925, 1759498928366514615, 
0.4628670811653137, 0.106234610080719, 0.042855711089843145, 1759498928396506798, 
-0.30628466606140137, -0.5816565155982971, 0.046691262225041545, 1759498928428313631, 
0.11121809482574463, 0.11919295787811279, 0.06744206239252205, 1759498928458988220, 
-0.24054968357086182, 0.4668998718261719, 0.05513152804070565, 1759498928486656782, 
-0.1585574746131897, -0.2782210111618042, 0.04591969733003376, 1759498928516658060, 
0.36500728130340576, -0.38051509857177734, 0.059561370923158406, 1759498928546734820, 
0.13278412818908691, 0.0706678032875061, 0.07329395541289532, 1759498928576714317, 
0.2196834683418274, 0.36557477712631226, 0.07365067016114511, 1759498928606731620, 
-0.051188528537750244, -0.14377641677856445, 0.05427287185756211, 1759498928636800070, 
0.10841405391693115, -0.31105858087539673, 0.05204012879561617, 1759498928667896682, 
-0.22798532247543335, 0.14186972379684448, 0.09117745420130877, 1759498928698817488, 
0.54534512758255, 0.1506388783454895, 0.0991986043892507, 1759498928727046946, 
-0.06269025802612305, -0.07504516839981079, 0.025603904258608125, 1759498928757094133, 
-0.10502392053604126, -0.30087482929229736, 0.036548821826723, 1759498928787058291, 
-0.16396939754486084, 0.03818589448928833, 0.06979080888850306, 1759498928817111538, 
-0.18145322799682617, 0.20259982347488403, 0.04877404753032799, 1759498928846187123, 
0.31581199169158936, -0.03154480457305908, 0.032469982444663786, 1759498928877230836, 
-0.1444825530052185, -0.23856604099273682, 0.06807599444294228, 1759498928907855442, 
0.20302283763885498, -0.043340206146240234, 0.08145814733601299, 1759498928940282980, 
-0.30730539560317993, 0.3601640462875366, 0.05922209230476023, 1759498928967537541, 
-0.3247562050819397, -0.11774134635925293, 0.056418957496465576, 1759498928997657727, 
0.2596699595451355, -0.3964371681213379, 0.058831331402825794, 1759498929027580139, 
-0.13305580615997314, -0.1085619330406189, 0.07562713331057823, 1759498929057640909, 
0.31758201122283936, 0.389201283454895, 0.06728548120283849, 1759498929087706274, 
-0.05073964595794678, 0.1058422327041626, 0.03607767003187135, 1759498929116825827, 
-0.48412466049194336, -0.5058152079582214, 0.028380123613258378, 1759498929148186446, 
0.3779873251914978, -0.17792832851409912, 0.04542063522878277, 1759498929180201583, 
0.5272863507270813, 0.5514551997184753, 0.051141378542578775, 1759498929210050516, 
-0.07188200950622559, 0.09390968084335327, 0.057140320476454225, 1759498929238079336, 
-0.2587582468986511, -0.640369713306427, 0.06799376633677567, 1759498929268184667, 
0.24766147136688232, 0.10478782653808594, 0.09379494328606645, 1759498929298420061, 
-0.04846543073654175, 0.604239821434021, 0.07776962050786772, 1759498929328325655, 
-0.3637581467628479, -0.259854257106781, 0.03060000236240298, 1759498929358685574, 
-0.27326810359954834, -0.604032039642334, 0.04624192025277438, 1759498929388424997, 
0.28508323431015015, 0.17386919260025024, 0.0706373639495409, 1759498929419889373, 
0.13628172874450684, 0.34822767972946167, 0.04297856190445517, 1759498929451482978, 
-0.3012516498565674, -0.3145815134048462, 0.024358838038814935, 1759498929478641569, 
-0.6476752758026123, -0.245905339717865, 0.04536620193933878, 1759498929508658297, 
0.4113175868988037, 0.33768975734710693, 0.052123826227488894, 1759498929538741377, 
-0.32346487045288086, 0.005816757678985596, 0.039743149717642215, 1759498929567846290, 
0.38814836740493774, -0.26916319131851196, 0.040590132038616604, 1759498929598892793, 
-0.23175156116485596, 0.09552603960037231, 0.06193729317297052, 1759498929628978836, 
0.3951486349105835, 0.04238158464431763, 0.06935211840592267, 1759498929659909182, 
0.025461435317993164, -0.05281412601470947, 0.06065056079740592, 1759498929691962855, 
-0.334269642829895, 0.031087219715118408, 0.0822853860541824, 1759498929719242434, 
0.10364210605621338, -0.062220096588134766, 0.057031285848744166, 1759498929749266477, 
0.006043374538421631, -0.18521976470947266, 0.058532096063624105, 1759498929779374375, 
0.12050443887710571, 0.16883856058120728, 0.07240789424887116, 1759498929809428296, 
-0.19509655237197876, 0.09631949663162231, 0.013826086883187627, 1759498929839636375, 
-0.13906973600387573, -0.3677172064781189, 0.021083545608418828, 1759498929869533406, 
0.1834697723388672, -0.1590796709060669, 0.07256526146174143, 1759498929900527168, 
0.08798080682754517, 0.3603699803352356, 0.06582707386488916, 1759498929931966570, 
-0.04156970977783203, 0.001830458641052246, 0.041862582693220705, 1759498929959766252, 
0.05184125900268555, -0.41656357049942017, 0.05736515550580329, 1759498929988823468, 
0.19230687618255615, 0.0044329166412353516, 0.09874936302185951, 1759498930019873713, 
-0.3519133925437927, 0.39811068773269653, 0.07721397920016003, 1759498930049971920, 
0.11781942844390869, -0.085757315158844, 0.033576648115285636, 1759498930079990690, 
-0.05281645059585571, -0.5820756554603577, 0.05188881302365718, 1759498930110098952, 
0.3837316036224365, 0.11135977506637573, 0.10110758861980156, 1759498930140156067, 
-0.03486365079879761, 0.5124517679214478, 0.02803866124559345, 1759498930172195141, 
-0.12058663368225098, -0.28790855407714844, 0.003923099256533766, 1759498930202757075, 
0.007697582244873047, -0.38512521982192993, 0.048224131417255456, 1759498930230497411, 
0.39650607109069824, 0.12212866544723511, 0.05093384044719994, 1759498930260446952, 
0.1506251096725464, 0.5087680220603943, 0.0334868241792322, 1759498930290497281, 
-0.43982231616973877, -0.29413366317749023, 0.061154171562177305, 1759498930320546865, 
-0.4222566485404968, 0.3764755129814148, 0.06050957623122688, 1759498930380754158, 
-0.08954566717147827, -0.2928130626678467, 0.05421713863027184, 1759498930451001000, 
0.16423022747039795, 0.13087356090545654, 0.06528964389448332, 1759498930480975864, 
0.023924946784973145, 0.15585589408874512, 0.0701489315807809, 1759498930511013841, 
0.04925423860549927, -0.09161591529846191, 0.04655878827397431, 1759498930571983395, 
0.20735013484954834, -0.07016605138778687, 0.023403464002092866, 1759498930604949819, 
0.5218272805213928, 0.09391307830810547, 0.010814842836668035, 1759498930631637351, 
-0.17079389095306396, 0.11565321683883667, 0.026551096488885272, 1759498930661693853, 
0.09385126829147339, -0.09112626314163208, 0.06346616149847806, 1759498930691730331, 
-0.11792004108428955, -0.14114177227020264, 0.08273567985348343, 1759498930721728082, 
0.17781996726989746, 0.10183632373809814, 0.05441566120744558, 1759498930751749499, 
-0.05942213535308838, 0.09812796115875244, 0.03566154936825323, 1759498930781812071, 
0.11390113830566406, -0.11722755432128906, 0.05744406400338516, 1759498930812131555, 
-0.26130223274230957, -0.3091869354248047, 0.05795301386440366, 1759498930844541243, 
0.00011283159255981445, 0.03613162040710449, 0.05862672347209125, 1759498930872086719, 
0.2707388401031494, 0.31666094064712524, 0.04322350667717687, 1759498930901920503, 
-0.20432358980178833, -0.1908789873123169, 0.030791460382679978, 1759498930931948515, 
0.1369379162788391, -0.2992076873779297, 0.029421850322804716, 1759498930962035237, 
-0.07512557506561279, 0.20497268438339233, 0.07788809752768677, 1759498931022312736, 
-0.32432228326797485, -0.27180927991867065, 0.06587269899433261, 1759498931051342852, 
0.35683631896972656, -0.31131869554519653, 0.05569124068489464, 1759498931083831621, 
-0.037825584411621094, 0.45515692234039307, 0.07173513305729051, 1759498931112754268, 
0.44627803564071655, -0.05194973945617676, 0.07503936276166231, 1759498931142643259, 
-0.09523904323577881, -0.4183945655822754, 0.0428406019765264, 1759498931172573253, 
0.10813826322555542, -0.06892025470733643, 0.0591558557052912, 1759498931202622371, 
-0.08268177509307861, 0.34048181772232056, 0.05930588127816949, 1759498931232642911, 
-0.30018407106399536, -0.11486202478408813, 0.01337046270016181, 1759498931262768495, 
0.19183874130249023, -0.26133590936660767, -0.00018440325383087557, 1759498931292804030, 
0.17983680963516235, -0.06806397438049316, 0.05242602929007049, 1759498931324371053, 
0.17961019277572632, 0.3517158031463623, 0.07724882599236792, 1759498931353222608, 
-0.2789289355278015, -0.04361307621002197, 0.05265520108330059, 1759498931383051071, 
-0.4452310800552368, -0.38414424657821655, 0.07155915852175825, 1759498931413247052, 
0.5303723216056824, 0.020391464233398438, 0.09635855324263418, 1759498931443381596, 
-0.06110745668411255, 0.21894150972366333, 0.049825362721864226, 1759498931473283784, 
0.220697820186615, -0.2246834635734558, 0.02974564544210097, 1759498931503350495, 
-0.07543361186981201, 0.05024552345275879, 0.03381944745780995, 1759498931533333393, 
-0.1378898024559021, -0.08738183975219727, 0.056717329799200474, 1759498931564241043, 
0.13120245933532715, -0.06359285116195679, 0.03776411985228492, 1759498931596712140, 
0.1096581220626831, 0.28037768602371216, 0.012053196441024665, 1759498931623546434, 
-0.21119534969329834, -0.14032649993896484, 0.024138046267034082, 1759498931653591332, 
-0.02851647138595581, -0.39656388759613037, 0.053782897994782614, 1759498931683690370, 
0.049672842025756836, 0.39266979694366455, 0.04622530373177843, 1759498931713806253, 
-0.38376784324645996, 0.12317478656768799, 0.01724369865038716, 1759498931743805910, 
0.15431708097457886, -0.421735942363739, 0.04152893955894784, 1759498931773860920, 
0.15758037567138672, -0.10019737482070923, 0.08766076461923944, 1759498931804620767, 
0.08687388896942139, 0.3591051697731018, 0.07793536532625744, 1759498931836118051, 
-0.3022308349609375, 0.07626968622207642, 0.022090351743482832, 1759498931866098598, 
0.08824402093887329, -0.5660104751586914, 0.02628115607178798, 1759498931894172991, 
0.042263805866241455, -0.00616765022277832, 0.07229565558374661, 1759498931924218902, 
0.23675543069839478, 0.6411716938018799, 0.060816371731841116, 1759498931954316625, 
0.19099700450897217, -0.027463674545288086, -0.007162694688182197, 1759498931983342038, 
-0.2735649347305298, -0.9019930362701416, 0.03301569278257071, 1759498932014438321, 
0.007721900939941406, 0.21527838706970215, 0.07969835783171338, 1759498932044547011, 
-0.2096593976020813, 0.713991105556488, 0.042202536321801376, 1759498932076336202, 
0.32106488943099976, -0.36911678314208984, 0.015867442535372506, 1759498932107924043, 
-0.02566283941268921, -0.6225981712341309, 0.04705268707413595, 1759498932134779237, 
-0.023566901683807373, 0.33746248483657837, 0.08438178231193363, 1759498932164805889, 
-0.003296971321105957, 0.5737794041633606, 0.053171041250732465, 1759498932194815354, 
-0.178799569606781, -0.38443636894226074, 0.04431200828669861, 1759498932224877049, 
0.7173358798027039, -0.4643569588661194, 0.09289162082276689, 1759498932254940139, 
-0.16549569368362427, 0.17955052852630615, 0.08048686967018816, 1759498932285046665, 
0.036599576473236084, 0.3911535143852234, 0.04177162751687844, 1759498932316437186, 
-0.08404439687728882, -0.3867511749267578, 0.016166600952151597, 1759498932348084227, 
-0.25431710481643677, -0.39505308866500854, 0.023643567910193238, 1759498932375338126, 
0.2125927209854126, 0.3310288190841675, 0.03770540545881067, 1759498932405413393, 
0.132343590259552, 0.10599583387374878, 0.05371477515904528, 1759498932434343362, 
-0.16037744283676147, -0.19165557622909546, 0.06828695372256215, 1759498932465488661, 
-0.11334621906280518, -0.13135600090026855, 0.06742033658173083, 1759498932495751828, 
0.07320737838745117, -0.036772191524505615, 0.03919548411607304, 1759498932525664945, 
-0.30150705575942993, 0.08732229471206665, 0.054396824841899165, 1759498932556480056, 
0.27645111083984375, -0.00510174036026001, 0.05202314076887278, 1759498932588047555, 
-0.11052113771438599, -0.19547539949417114, 0.027199262539711323, 1759498932615866142, 
0.03911876678466797, -0.16531890630722046, 0.038260908378889284, 1759498932644846528, 
-0.36923325061798096, 0.2694801688194275, 0.04923519457477813, 1759498932676559277, 
0.19326657056808472, -0.023016154766082764, 0.04646934911125591, 1759498932706609897, 
0.04300689697265625, -0.2275356650352478, 0.0307949175902468, 1759498932736698093, 
0.19614875316619873, -0.10150331258773804, 0.037089233073996634, 1759498932766706817, 
0.18843042850494385, 0.17821800708770752, 0.049533643123444646, 1759498932796800324, 
-0.2801159620285034, 0.1276833415031433, 0.042086488040223705, 1759498932828092024, 
0.006387650966644287, -0.29801666736602783, 0.03500485320330436, 1759498932857845893, 
-0.2639310956001282, -0.0916481614112854, 0.026323063600456994, 1759498932886805617, 
0.16749900579452515, 0.2770175337791443, 0.05776155998928899, 1759498932916953626, 
-0.22212374210357666, -0.1077691912651062, 0.08865504709696868, 1759498932947090990, 
0.4692208170890808, -0.1606544852256775, 0.0574739687323037, 1759498932977047826, 
-0.29775315523147583, 0.16840291023254395, 0.03466721589612334, 1759498933007308089, 
-0.27542346715927124, 0.13320744037628174, 0.05260322514896607, 1759498933037256562, 
0.13123446702957153, -0.33125531673431396, 0.046721012011716044, 1759498933067880479, 
-0.0698283314704895, -0.05691450834274292, 0.0362441637812761, 1759498933100098293, 
0.23864811658859253, 0.3454303741455078, 0.06694601113084502, 1759498933127184640, 
0.0412556529045105, -0.1519750952720642, 0.06554988440395546, 1759498933157102578, 
-0.2004023790359497, -0.29596424102783203, 0.03920806045545984, 1759498933187396228, 
0.06040221452713013, 0.0511440634727478, 0.0427450440955682, 1759498933217217919, 
0.3508499264717102, 0.22781580686569214, 0.04703073088995437, 1759498933247260650, 
-0.1704389452934265, -0.10290426015853882, 0.03267710303842892, 1759498933277325399, 
-0.15960174798965454, -0.3212147355079651, 0.0182341652195203, 1759498933308110735, 
-0.1830185055732727, 0.0956869125366211, 0.03988951510303333, 1759498933340265172, 
-0.009369194507598877, 0.2742190957069397, 0.05770596925892506, 1759498933368047407, 
-0.14470016956329346, -0.3224300742149353, 0.00456328385159854, 1759498933420112735, 
0.12657314538955688, -0.025851547718048096, 0.05394726225861604, 1759498933448048254, 
-0.030423760414123535, 0.2696094512939453, 0.06350750751646086, 1759498933487794375, 
0.17166924476623535, -0.36522895097732544, 0.03455893266719192, 1759498933517884707, 
-0.34556323289871216, -0.2677651643753052, 0.03237040527778478, 1759498933548385384, 
0.09327590465545654, 0.27179914712905884, 0.06387054995680558, 1759498933580547119, 
-0.22322416305541992, 0.12755924463272095, 0.0655503012240185, 1759498933610115031, 
0.2480899691581726, -0.3260655403137207, 0.04184966938010095, 1759498933638150891, 
0.04436206817626953, -0.11060446500778198, 0.012809019762521964, 1759498933668199476, 
-0.34346431493759155, -0.06838154792785645, 0.03508565023297011, 1759498933698290323, 
0.1741403341293335, 0.2291145920753479, 0.047380687527143375, 1759498933728319878, 
-0.4400879144668579, 0.0903397798538208, 0.01545606682356796, 1759498933758418735, 
0.37683337926864624, -0.28839677572250366, 0.013178303153624442, 1759498933788501536, 
-0.15560871362686157, -0.2706059217453003, 0.054588896927510934, 1759498933820406803, 
-0.11873060464859009, 0.3712500333786011, 0.05444044578733215, 1759498933851649244, 
0.31552886962890625, 0.10916948318481445, 0.018597591818790938, 1759498933878770287, 
-0.340273380279541, -0.46248024702072144, 0.03639454556595334, 1759498933908750743, 
0.5196036100387573, -0.08614838123321533, 0.092393975099422, 1759498933938872236, 
-0.1692914366722107, 0.3145506978034973, 0.07987326937515941, 1759498933968900557, 
-0.36792320013046265, 0.1145409345626831, 0.02579114298024113, 1759498933998968968, 
-0.2312946319580078, -0.4991692304611206, 0.02320876797001829, 1759498934029069978, 
0.6751939654350281, -0.24650448560714722, 0.06650971368514204, 1759498934060139350, 
-0.12110209465026855, 0.5440378189086914, 0.019837744334734855, 1759498934092569771, 
-0.1445179581642151, 0.02507883310317993, -0.036959602586329694, 1759498934119284102, 
-0.35516953468322754, -0.5762674808502197, 0.03578339889725722, 1759498934149301876, 
0.11692029237747192, -0.056597769260406494, 0.09406411168040864, 1759498934179383404, 
0.32898592948913574, 0.5349724292755127, 0.04272248416296817, 1759498934209457916, 
-0.051507771015167236, -0.048975586891174316, 0.02029231590852959, 1759498934239539277, 
0.030094921588897705, -0.6525311470031738, 0.07593193585011707, 1759498934269615455, 
-0.15565001964569092, 0.1241908073425293, 0.09504072698914014, 1759498934300409980, 
0.16837483644485474, 0.4956668019294739, 0.009772695833400305, 1759498934332461311, 
-0.04209190607070923, -0.3468129634857178, -0.006845865990618653, 1759498934359911711, 
0.11008948087692261, -0.2926397919654846, 0.06863511148281115, 1759498934389867924, 
0.34758639335632324, 0.19278031587600708, 0.09732771130692901, 1759498934419962161, 
-0.1904798150062561, 0.4344158172607422, 0.04323858384472172, 1759498934450037219, 
0.219072163105011, -0.406636118888855, 0.006351964580054011, 1759498934480098159, 
-0.4661935567855835, -0.5051948428153992, -0.003385307099855709, 1759498934510169975, 
0.37249302864074707, 0.7266901731491089, 0.01941116075942151, 1759498934540591000, 
-0.07839310169219971, -0.006157219409942627, 0.08990866405122792, 1759498934572177247, 
0.3483535647392273, -0.31697386503219604, 0.1279052416908443, 1759498934600408433, 
-0.26860249042510986, 0.041639506816864014, 0.061673650164159786, 1759498934630444183, 
0.08329981565475464, 0.05307966470718384, 0.03224583848702545, 1759498934659544271, 
0.45821017026901245, -0.06209629774093628, 0.03407401816872384, 1759498934690607121, 
-0.15285640954971313, -0.006877899169921875, 0.045508068009578684, 1759498934720805811, 
-0.020163536071777344, 0.02173525094985962, 0.06581130847257166, 1759498934751006469, 
-0.015026688575744629, -0.057556748390197754, 0.06980402475622301, 1759498934780903909, 
-0.1551513671875, 0.049714505672454834, 0.047760207532552175, 1759498934812216433, 
0.023082733154296875, -0.18219441175460815, 0.028105641059352024, 1759498934843518078, 
0.25066065788269043, -0.12231367826461792, 0.014531213410757915, 1759498934870999101, 
-0.05586320161819458, 0.21342945098876953, 0.021785747245456993, 1759498934901773936, 
0.3135121464729309, 0.11308503150939941, 0.03453454003011235, 1759498934931755014, 
-0.355940580368042, -0.2547670006752014, 0.05090284218786542, 1759498934961795797, 
-0.12466150522232056, -0.259313702583313, 0.08113563241680846, 1759498934990818907, 
0.17032039165496826, 0.2844812870025635, 0.05954573071755347, 1759498935020846577, 
0.24550092220306396, 0.2215108871459961, 0.04075947796376353, 1759498935052657374, 
0.21336698532104492, -0.4062899947166443, 0.0468180977520119, 1759498935084697331, 
0.0707162618637085, -0.2217509150505066, 0.03853691341974249, 1759498935111923890, 
0.10689270496368408, 0.36371636390686035, 0.02879888738159927, 1759498935141925233, 
-0.23718225955963135, 0.1795216202735901, 0.03427902094716115, 1759498935172018054, 
0.2879573106765747, -0.4358872175216675, 0.02834248863245181, 1759498935201986013, 
-0.19352155923843384, -0.19876253604888916, 0.022684565926408586, 1759498935232033557, 
0.23397916555404663, 0.39285004138946533, 0.04208337525084636, 1759498935262038201, 
-0.2506170868873596, 0.14138305187225342, 0.0693459364919325, 1759498935292231625, 
-0.03590679168701172, -0.44501829147338867, 0.06701516380733903, 1759498935324619183, 
0.031701624393463135, -0.14636993408203125, 0.0560673168431891, 1759498935352305911, 
-0.23436319828033447, 0.4098992347717285, 0.06457194079607272, 1759498935382139263, 
0.1696588397026062, -0.025857210159301758, 0.05880498366541072, 1759498935412203013, 
-0.31636106967926025, -0.35896384716033936, 0.022622709861298915, 1759498935442305199, 
-0.34936660528182983, -0.1509953737258911, 0.04213067954727475, 1759498935472357074, 
0.102328360080719, 0.3545985221862793, 0.03853114962651556, 1759498935502595600, 
-0.25487762689590454, -0.04339534044265747, -0.0034199255716476757, 1759498935532466675, 
0.007112085819244385, -0.3281733989715576, -0.0013746018231057331, 1759498935564220683, 
0.29205775260925293, 0.09307920932769775, 0.04676312834842424, 1759498935595548166, 
-0.13120687007904053, 0.30895888805389404, 0.06488017177919307, 1759498935622746492, 
0.05461776256561279, -0.2007075548171997, 0.042555022382741246, 1759498935652743519, 
0.1632089614868164, -0.28629225492477417, 0.036295121648152046, 1759498935682806688, 
-0.2107769250869751, 0.2057444453239441, 0.051828516537856154, 1759498935712909569, 
0.08236849308013916, 0.09338539838790894, 0.05372117855552122, 1759498935742960383, 
-0.23244017362594604, -0.16016483306884766, 0.03368979490410921, 1759498935773033726, 
-0.11361879110336304, -0.17096763849258423, 0.048903475896408734, 1759498935804477750, 
0.3425517678260803, 0.07950466871261597, 0.05210391696278843, 1759498935836294387, 
0.02111220359802246, 0.11838769912719727, 0.034446231403692615, 1759498935863299380, 
0.06494265794754028, -0.06372690200805664, 0.004449418372755292, 1759498935893284754, 
-0.3577060103416443, 8.52346420288086e-05, -0.0017762947748211843, 1759498935916329094, 
0.2966378331184387, -0.05410337448120117, 0.026284915910762062, 1759498935953482380, 
-0.2711508274078369, -0.09622341394424438, 0.056266209072972743, 1759498935983529761, 
0.2859134078025818, -0.02410072088241577, 0.03634898624096363, 1759498936013571539, 
-0.3643913269042969, 0.024820685386657715, 0.025794110355021577, 1759498936044424516, 
0.37810832262039185, -0.06949937343597412, 0.06285595467820372, 1759498936076718397, 
-0.02541273832321167, 0.20872855186462402, 0.06486078296241868, 1759498936103908890, 
-0.49110734462738037, -0.059589385986328125, 0.03102798308374648, 1759498936133882066, 
-0.0112382173538208, -0.39544957876205444, 0.04397326694553226, 1759498936163929461, 
-0.23520606756210327, 0.1975802183151245, 0.061451895152909525, 1759498936193996230, 
0.14472705125808716, 0.2526193857192993, -0.00212968570433385, 1759498936224231045, 
-0.41893893480300903, -0.17036259174346924, -0.029038035570726414, 1759498936254208551, 
-0.00043261051177978516, -0.7042528390884399, 0.03923427694401618, 1759498936284770004, 
0.24998539686203003, 0.44524437189102173, 0.0518628657048149, 1759498936316348849, 
-0.2144727110862732, 0.6709426045417786, 0.014933546403156573, 1759498936346423134, 
-0.12230044603347778, -0.6087445020675659, 0.007035730272816266, 1759498936374990193, 
0.12306720018386841, -0.43497025966644287, 0.06598378531568606, 1759498936404462702, 
-0.2617359757423401, 0.47440052032470703, 0.07958224416386002, 1759498936434540577, 
0.04860872030258179, -0.543630838394165, -0.01180295368338238, 1759498936494713086, 
-0.1497308611869812, -0.48698359727859497, 0.06968919532603908, 1759498936525105039, 
0.13193225860595703, 0.6670206189155579, 0.07265666826429423, 1759498936556331002, 
-0.3816831707954407, 0.2418363094329834, 0.00013201460354905078, 1759498936588723158, 
0.0959327220916748, -0.6664503812789917, 0.009310643401821648, 1759498936615626749, 
1.0264062881469727, -0.22601693868637085, 0.07617425839035875, 1759498936645211304, 
0.20876580476760864, 0.7945773005485535, 0.03962133537326887, 1759498936675086785, 
-0.1571364402770996, -0.41583704948425293, 0.013435488941477076, 1759498936705135248, 
-0.12302196025848389, -0.2528969645500183, 0.045753357431684336, 1759498936735248664, 
-0.3053102493286133, 0.1303653120994568, 0.061144690538913166, 1759498936765407816, 
0.05207139253616333, 0.20350033044815063, 0.03905458045859007, 1759498936796620120, 
0.15730339288711548, -0.21293503046035767, 0.030104253702184686, 1759498936828716355, 
-0.46160203218460083, -0.2936163544654846, 0.01983705597515674, 1759498936855805300, 
0.1569277048110962, 0.2744196057319641, 0.014198111412992164, 1759498936885746427, 
-0.21171367168426514, 0.1842648983001709, 0.035695840923041594, 1759498936915657647, 
-0.06445789337158203, 0.15632420778274536, 0.06325837322512982, 1759498936988324128, 
0.40122997760772705, 0.17806124687194824, 0.056983243342179975, 1759498937015960010, 
0.028859376907348633, -0.2642529010772705, 0.036006768746284334, 1759498937045948042, 
0.05638241767883301, -0.1521778702735901, 0.04348460837531308, 1759498937076007054, 
0.24821960926055908, 0.1572955846786499, 0.06506556250478797, 1759498937106088463, 
-0.006957828998565674, -0.06261152029037476, 0.05233072798079752, 1759498937135909934, 
-0.005897581577301025, -0.025517165660858154, 0.04085806329245678, 1759498937196982372, 
-0.18081480264663696, 0.209633469581604, 0.05904919388431254, 1759498937228720386, 
-0.015512943267822266, 0.03454405069351196, 0.02945586285407131, 1759498937258656212, 
0.31495553255081177, -0.18297022581100464, 0.023202497369989118, 1759498937287142978, 
-0.14956539869308472, -0.09473937749862671, 0.04345731475709557, 1759498937317049763, 
-0.24719947576522827, 0.09463644027709961, 0.04087051764386338, 1759498937347033951, 
-0.048023223876953125, -0.09727245569229126, 0.035634592584356195, 1759498937377055269, 
-0.39843446016311646, 0.2218131422996521, 0.030724835597831707, 1759498937407031060, 
0.8466929197311401, -0.13461250066757202, 0.08242422806163809, 1759498937437138741, 
0.5433250665664673, -0.39687830209732056, 0.06832222895085995, 1759498937468628750, 
-0.17758488655090332, 0.2510911822319031, 0.029889324957854208, 1759498937500326100, 
-0.634611189365387, 0.07892698049545288, 0.0374546332312252, 1759498937527287447, 
0.25653356313705444, -0.3903411626815796, 0.036468704434006294, 1759498937557251102, 
-0.6948686242103577, -0.09173423051834106, 0.031844378983937514, 1759498937587229906, 
0.16406536102294922, 0.5363062620162964, 0.05495112425560021, 1759498937617315537, 
-0.08308428525924683, -0.03442865610122681, 0.10369856514773833, 1759498937647333148, 
0.2612273693084717, -0.5366144180297852, 0.07304660530430851, 1759498937677422640, 
0.20962035655975342, -0.07894361019134521, -0.0032117061058553266, 1759498937708594050, 
-0.1998903751373291, 0.34309399127960205, 0.018604097463524066, 1759498937741005942, 
0.2978430986404419, 0.002009272575378418, 0.06302582866779807, 1759498937767618783, 
0.10927236080169678, -0.387670636177063, 0.0636468854650077, 1759498937797671948, 
0.3564939498901367, 0.03449070453643799, 0.08475706190008102, 1759498937827719677, 
-0.13247251510620117, 0.37580418586730957, 0.07735805082714726, 1759498937856855702, 
-0.18112057447433472, -0.2805560231208801, 0.04080950138734483, 1759498937887880519, 
0.361045241355896, -0.3287450075149536, 0.015029980692826838, 1759498937917986683, 
-0.019914209842681885, 0.2812759280204773, 0.028070155146004208, 1759498937948366323, 
0.182076096534729, 0.13744378089904785, 0.03553772714268838, 1759498937980368724, 
-0.07779359817504883, -0.13794302940368652, 0.0186266206427943, 1759498938008269780, 
-0.47669517993927, -0.18459051847457886, 0.011528685724049156, 1759498938038232527, 
0.005352139472961426, 0.10177832841873169, 0.012565453244444157, 1759498938068253362, 
0.1791313886642456, 0.1122313141822815, -0.008042685915095396, 1759498938090415517, 
-0.2540937662124634, -0.27761340141296387, 0.012624414273612104, 1759498938128394638, 
-0.039089739322662354, -0.02728348970413208, 0.03868447289116242, 1759498938158467101, 
-0.3339131474494934, 0.17110973596572876, 0.03234249245989328, 1759498938188790041, 
-0.2518761157989502, -0.16479337215423584, 0.03148083306045512, 1759498938220439571, 
0.5032110214233398, -0.08743500709533691, 0.024632206077756496, 1759498938250112221, 
0.4608880281448364, 0.16113930940628052, -0.00012344095305829463, 1759498938278798134, 
-0.26554805040359497, -0.19709277153015137, 0.02754742903129491, 1759498938307832245, 
-0.7576261758804321, -0.09253799915313721, 0.03780994013956861, 1759498938338907654, 
0.030602872371673584, -0.025249779224395752, 0.01861353945165485, 1759498938369030204, 
-0.23093491792678833, 0.04171574115753174, -0.015967203263352412, 1759498938399110541, 
0.8419334888458252, -0.024562299251556396, -0.019684212629132433, 1759498938429321898, 
-0.29686039686203003, -0.020665466785430908, 0.020770819552935107, 1759498938460404633, 
0.5961747169494629, 0.14160799980163574, 0.035173035249328855, 1759498938492390102, 
-0.06607323884963989, -0.07269740104675293, 0.04996516743525029, 1759498938519386381, 
-0.26161646842956543, -0.18425756692886353, 0.05102798818703769, 1759498938549378913, 
-0.14281469583511353, 0.0445406436920166, 0.042569603330863716, 1759498938579461845, 
0.04541289806365967, 0.07511073350906372, 0.007043501236878212, 1759498938609580447, 
0.44615501165390015, -0.1903122067451477, 0.021321480632427444, 1759498938639664983, 
0.03825581073760986, 0.20436275005340576, 0.03860651446856732, 1759498938670059510, 
-0.25620192289352417, -0.011520683765411377, 0.011473638569745067, 1759498938701053131, 
0.08435750007629395, -0.1616869568824768, -0.003172447457381698, 1759498938732555015, 
0.18046164512634277, -0.09720301628112793, 0.045865597434356704, 1759498938759904231, 
0.1672411561012268, 0.2544299364089966, 0.023286882882379345, 1759498938789924830, 
0.15663444995880127, -0.0949331521987915, -0.0026195355491056113, 1759498938820021932, 
-0.20288538932800293, -0.29814213514328003, 0.02372536995114671, 1759498938850093317, 
-0.051887333393096924, 0.4125102162361145, 0.06681390830196272, 1759498938880157386, 
0.3424120545387268, 0.15511661767959595, 0.03801685248031796, 1759498938910422921, 
-0.11299806833267212, -0.36498451232910156, -0.011975241638398389, 1759498938940405087, 
-0.14843440055847168, -0.28410136699676514, 0.02388675704212129, 1759498938972376358, 
-0.14676737785339355, 0.378376305103302, 0.07909045425815807, 1759498939000449299, 
-0.4265555143356323, 0.312411367893219, 0.03718888855014342, 1759498939030474697, 
0.17597997188568115, -0.5894757509231567, 0.021046969940697526, 1759498939060570551, 
-0.033279478549957275, -0.4505845904350281, 0.07442967107727361, 1759498939090622704, 
0.17628657817840576, 0.7202818393707275, 0.07472804129468154, 1759498939120725121, 
-0.139481782913208, 0.34141093492507935, 0.015369024740974445, 1759498939150776818, 
-0.009694397449493408, -0.8526802062988281, 0.008490905603643179, 1759498939179832272, 
0.007168471813201904, -0.2537592053413391, 0.02227364836431353, 1759498939211842645, 
0.23306357860565186, 0.6142336130142212, 0.038608394796520284, 1759498939243561983, 
0.013041555881500244, 0.18199902772903442, 0.067612568789373, 1759498939271173715, 
-0.4373464584350586, -0.5195053815841675, 0.0563053828160708, 1759498939301140250, 
0.04524946212768555, -0.11473512649536133, 0.08402676946993744, 1759498939331213857, 
-0.0802268385887146, 0.5607324242591858, 0.08948786008688724, 1759498939361271175, 
0.5271807909011841, -0.3777002692222595, 0.04545531852800263, 1759498939391300309, 
-0.05639404058456421, -0.3864286541938782, 0.018701936380254674, 1759498939421363529, 
0.22122091054916382, 0.24754643440246582, 0.052121224870546906, 1759498939452408789, 
-0.07214546203613281, 0.35062408447265625, 0.05840531051896335, 1759498939484876448, 
-0.029585838317871094, -0.294323205947876, 0.044631494586345154, 1759498939511687929, 
0.37281334400177, -0.2395310401916504, 0.04220104675829413, 1759498939541648691, 
0.028420090675354004, 0.2147555947303772, 0.07397878824844571, 1759498939571742617, 
0.01711118221282959, 0.2543793320655823, 0.09517619392054495, 1759498939600824638, 
0.09640395641326904, -0.19168150424957275, 0.045760824492960976, 1759498939630847779, 
-0.34282034635543823, -0.3522680997848511, 0.03737158793476029, 1759498939661916269, 
-0.01819664239883423, 0.26741689443588257, 0.0653260250891248, 1759498939692418344, 
0.41381287574768066, 0.16506743431091309, 0.035747019961687665, 1759498939725372964, 
-0.20584070682525635, -0.2138492465019226, 0.019188594474733568, 1759498939752266318, 
0.05206000804901123, -0.15173876285552979, 0.050448280251571526, 1759498939782209851, 
-0.23836296796798706, 0.11997336149215698, 0.03577576099492012, 1759498939812286661, 
-0.087646484375, 0.09489136934280396, -0.015182326161328086, 1759498939842330351, 
0.010191082954406738, -0.0546342134475708, -0.022634545673784055, 1759498939872409426, 
-0.07638126611709595, -0.19617772102355957, 0.0351348157069396, 1759498939902535043, 
0.13463443517684937, -0.0640152096748352, 0.06102948808795138, 1759498939932970603, 
-0.3991047143936157, 0.22662168741226196, 0.039837839290699714, 1759498939965611048, 
0.019724130630493164, -0.10483980178833008, 0.05515542147769813, 1759498939994300921, 
-0.0782461166381836, -0.20743954181671143, 0.05982089009010746, 1759498940022764573, 
0.412115216255188, -0.09437209367752075, 0.048542651372731616, 1759498940052936016, 
0.13023149967193604, 0.3235006332397461, 0.031100496608462327, 1759498940081847584, 
-0.18908065557479858, -0.03456205129623413, 0.02612608330702344, 1759498940112984798, 
-0.15325188636779785, -0.4044528007507324, 0.01695375088783736, 1759498940143053493, 
-0.030796408653259277, -0.13198643922805786, 0.036766668991677805, 1759498940173222203, 
0.20713931322097778, 0.5080010294914246, 0.008334238581255825, 1759498940204676191, 
-0.042126476764678955, -0.34665530920028687, -0.013940751851336012, 1759498940237060857, 
0.3994625210762024, -0.38642293214797974, -0.0013837549090158212, 1759498940263459586, 
0.010720610618591309, 0.32962167263031006, 0.022931086222064884, 1759498940293544000, 
-0.10625481605529785, 0.34842920303344727, 0.020081022757948718, 1759498940323392148, 
0.155448317527771, -0.5096206068992615, -0.001213317978512068, 1759498940353558701, 
-0.06711602210998535, -0.49049437046051025, 0.03201820569903419, 1759498940383594241, 
0.14231765270233154, 0.5015595555305481, 0.06092066008748691, 1759498940413710954, 
0.10487335920333862, 0.3310815691947937, 0.004398047569071971, 1759498940443820642, 
-0.3721238970756531, -0.4358366131782532, -0.022601036194087844, 1759498940475897081, 
-0.003198564052581787, -0.29164689779281616, 0.0379850944156, 1759498940503915680, 
0.32219821214675903, 0.37476658821105957, 0.07655663783211666, 1759498940533935276, 
0.035060107707977295, 0.4953956604003906, 0.003564650516012192, 1759498940564042646, 
-0.23199450969696045, -0.7241637706756592, 0.0007306593731013091, 1759498940594128768, 
0.0002600550651550293, -0.2870326042175293, 0.05781582711998425, 1759498940624163143, 
-0.17380189895629883, 0.6247484087944031, 0.03856459210674594, 1759498940654213988, 
0.2630358934402466, -0.15038299560546875, -0.006637734950371264, 1759498940685223139, 
-0.0946880578994751, -0.5319140553474426, 0.02200811959098846, 1759498940717210844, 
0.21889901161193848, 0.13672643899917603, 0.05287317220781759, 1759498940744456157, 
-0.16007977724075317, 0.5467448234558105, -0.0004460051078087252, 1759498940774499910, 
0.03005927801132202, -0.28742027282714844, -0.009166323736606826, 1759498940804548560, 
-0.28968673944473267, -0.5250821113586426, 0.03951990989763353, 1759498940834641300, 
0.4113912582397461, 0.4390329122543335, 0.07695304074112931, 1759498940864687641, 
0.38206028938293457, 0.17247647047042847, 0.013226225998925088, 1759498940894750680, 
-0.2690075635910034, -0.47290337085723877, -0.020187100241220893, 1759498940925041102, 
-0.15528422594070435, -0.07055950164794922, 0.026895149048968312, 1759498940956625250, 
-0.2467648983001709, 0.33481037616729736, 0.04017309970821243, 1759498940988113698, 
0.5707120895385742, -0.11321347951889038, 0.02623228284952194, 1759498941015313313, 
-0.11940616369247437, -0.3241409659385681, 0.020113891618463397, 1759498941045099075, 
-0.14565277099609375, 0.12219685316085815, 0.021741813834314644, 1759498941075174507, 
-0.11435180902481079, 0.44919973611831665, 0.0342605834644015, 1759498941105214959, 
-0.18826687335968018, -0.17154157161712646, 0.024651279680086916, 1759498941135300172, 
0.3805454969406128, -0.4121180772781372, 0.05367279442026332, 1759498941165383149, 
-0.15456736087799072, 0.06312358379364014, 0.07221196096809285, 1759498941197302725, 
0.17463666200637817, 0.26794248819351196, 0.0656932849282145, 1759498941228527797, 
-0.17568480968475342, -0.13590258359909058, 0.024316927171699143, 1759498941255664758, 
-0.3304244875907898, -0.25201332569122314, 0.011576802285929581, 1759498941285634872, 
0.39323556423187256, 0.09569770097732544, 0.03970817535986216, 1759498941315738103, 
0.2764390707015991, 0.15888088941574097, 0.0363052606919994, 1759498941344846374, 
-0.08241236209869385, -0.12488383054733276, 0.026060773530727572, 1759498941374901260, 
-0.13725459575653076, -0.1284184455871582, 0.042781218364720125, 1759498941405930981, 
-0.012276172637939453, 0.007844269275665283, 0.05696262612048632, 1759498941436680364, 
-0.17549610137939453, 0.08292442560195923, 0.02322700536263577, 1759498941468554142, 
0.1509985327720642, -0.030637681484222412, 0.0035641596681387834, 1759498941496203202, 
-0.051910221576690674, -0.23751753568649292, 0.019164682489191006, 1759498941526487092, 
0.04053407907485962, 0.06286096572875977, 0.036827282952931195, 1759498941556273187, 
-0.39554423093795776, 0.31208378076553345, 0.03312014632659961, 1759498941586393768, 
0.3309262990951538, -0.17961519956588745, 0.04673851310129985, 1759498941617135467, 
-0.11651211977005005, -0.13051164150238037, 0.06005079411921743, 1759498941647094266, 
0.5469618439674377, -0.05579715967178345, 0.05117436434450168, 1759498941677191762, 
0.18934708833694458, 0.12497836351394653, 0.017818673310113855, 1759498941709078826, 
-0.1556972861289978, -0.01532524824142456, 0.03599667583671537, 1759498941738688350, 
-0.16246891021728516, -0.1417773962020874, 0.05726892077202922, 1759498941767196483, 
-0.10818612575531006, 0.08911603689193726, 0.0360006607505142, 1759498941797240760, 
0.16184377670288086, 0.0880693793296814, 0.034070822588101804, 1759498941827217747, 
-0.11084073781967163, -0.13028329610824585, 0.05878257295507808, 1759498941857324014, 
0.05165684223175049, -0.1379210352897644, 0.06769167226255958, 1759498941887273753, 
-0.11991983652114868, 0.16126978397369385, 0.03899777775860847, 1759498941917475680, 
-0.07468003034591675, 0.13103002309799194, 0.0473240183523546, 1759498941948894853, 
0.2517789602279663, -0.3281289339065552, 0.029441705081370385, 1759498941980587506, 
-0.29986339807510376, -0.11021173000335693, 0.0037763782277900203, 1759498942007579792, 
0.23005980253219604, 0.2230728268623352, 0.020731672085956342, 1759498942037586386, 
0.06939983367919922, -0.023388922214508057, 0.03169255864979332, 1759498942067779311, 
-0.03111809492111206, -0.3134341239929199, 0.04168561557585768, 1759498942096830653, 
0.25111639499664307, -0.017096102237701416, 0.05319958240550106, 1759498942127792982, 
0.28787684440612793, 0.3602093458175659, 0.04292766851185547, 1759498942157695617, 
0.08168178796768188, -0.44483745098114014, 0.05409040518778168, 1759498942221172085, 
-0.12897151708602905, 0.09771287441253662, 0.06908345952642075, 1759498942247907424, 
-0.07885706424713135, 0.3538439869880676, 0.014438452823505265, 1759498942277147612, 
0.0691765546798706, -0.3799775242805481, -0.009763256979088794, 1759498942308257670, 
0.03131347894668579, -0.2596445679664612, -0.014449546276229937, 1759498942338071988, 
0.21232366561889648, 0.31768369674682617, -0.016255993811475702, 1759498942368192645, 
0.059584736824035645, 0.37834078073501587, -0.012763873915707524, 1759498942398192011, 
0.18481141328811646, -0.26751863956451416, 0.025110067000112753, 1759498942428589709, 
-0.12658441066741943, -0.3072429895401001, 0.06550877585053459, 1759498942460596339, 
0.341106653213501, 0.4293198585510254, 0.0760249910462586, 1759498942488442287, 
-0.023685455322265625, 0.1733221411705017, 0.03538000077280723, 1759498942518501114, 
-0.0144881010055542, -0.5427500009536743, 0.044045619139650875, 1759498942548512237, 
-0.010264813899993896, -0.19778668880462646, 0.05102923270781271, 1759498942570626642, 
-0.2711341381072998, 0.4544858932495117, 0.034415150260572513, 1759498942608636493, 
-0.036769330501556396, -0.03827399015426636, 0.018907151575746708, 1759498942638737115, 
-0.359805166721344, -0.2462775707244873, 0.031161354296779294, 1759498942668991296, 
0.14685505628585815, -0.0006704330444335938, 0.01749661464800302, 1759498942700614185, 
-0.26265549659729004, 0.07887512445449829, -0.002205877908143733, 1759498942732046607, 
-0.1986088752746582, -0.1375671625137329, 0.03557860434515052, 1759498942759122619, 
0.2326003909111023, -0.02259504795074463, 0.021944722547075777, 1759498942789047024, 
-0.18322104215621948, 0.01796025037765503, 0.015291457760414172, 1759498942819173246, 
0.3191303610801697, -0.06368029117584229, 0.046618974231653745, 1759498942849191350, 
-0.007255494594573975, 0.023982763290405273, 0.060005835168293296, 1759498942879301767, 
-0.3556925058364868, -0.03851038217544556, 0.055272434602452916, 1759498942909550660, 
0.1422547698020935, -0.10784280300140381, 0.01886170844265064, 1759498942940639506, 
0.26470887660980225, -0.08820140361785889, 0.014271059156699264, 1759498942972645670, 
-0.20729464292526245, 0.12079483270645142, 0.05317871775529676, 1759498942999572498, 
-0.0017363429069519043, 0.05506366491317749, 0.025505621939090027, 1759498943029643554, 
-0.11669468879699707, -0.298889696598053, 0.007346189812656036, 1759498943059682176, 
0.067299485206604, 0.05527293682098389, 0.013992141023686702, 1759498943089796930, 
0.08005315065383911, 0.1699250340461731, -0.0016222968011913217, 1759498943119911520, 
0.21359431743621826, -0.16822201013565063, 0.006522313947766002, 1759498943148978194, 
0.4886968731880188, -0.21685636043548584, 0.03703465582904524, 1759498943180310150, 
0.1618269681930542, 0.33585143089294434, 0.04563931829700623, 1759498943212648450, 
0.034622132778167725, 0.10572266578674316, 0.007413676987373739, 1759498943240137927, 
-0.4590032696723938, -0.45943164825439453, 0.01857197047931893, 1759498943270227352, 
0.7294343709945679, 0.05093485116958618, 0.06526218268395788, 1759498943300263584, 
-0.10702121257781982, 0.43719083070755005, 0.048623500797062305, 1759498943330362825, 
0.12770432233810425, -0.20106130838394165, 0.028318176608723166, 1759498943360409322, 
-0.07277166843414307, -0.40085458755493164, 0.044010161955128795, 1759498943390693941, 
-0.30024224519729614, 0.05533134937286377, 0.05312158046739754, 1759498943419816618, 
0.027404069900512695, 0.3969299793243408, 0.01881447031402581, 1759498943452637821, 
-0.4869362711906433, -0.10960733890533447, -0.005670373242927951, 1759498943480678160, 
0.2534778118133545, -0.6342755556106567, 0.014067158217269756, 1759498943510790928, 
-0.05067563056945801, 0.1750645637512207, 0.020598319407228505, 1759498943540806165, 
-0.010080516338348389, 0.5117019414901733, 0.009980948523395872, 1759498943570929301, 
0.07903915643692017, -0.27561473846435547, 0.020850161329529555, 1759498943600936003, 
-0.21211838722229004, -0.5308760404586792, 0.051237992824071925, 1759498943631000965, 
0.32687443494796753, 0.36382627487182617, 0.06625889862726932, 1759498943661072182, 
-0.07395333051681519, 0.49119889736175537, 0.04948907498090559, 1759498943693069890, 
-0.31792622804641724, -0.5934048295021057, 0.037920648323548224, 1759498943723901485, 
-0.07368940114974976, -0.39272356033325195, 0.05526437126525339, 1759498943751368308, 
0.09986960887908936, 0.4727228283882141, 0.06093758104920348, 1759498943781370864, 
-0.07364612817764282, 0.19896239042282104, 0.01236317253687361, 1759498943811638244, 
0.03338676691055298, -0.580025851726532, -0.04602355525754288, 1759498943841554754, 
-0.10267108678817749, -0.2957710027694702, -0.03321388705625097, 1759498943872368127, 
-0.1735314130783081, 0.48427051305770874, 0.02065682609370753, 1759498943902464356, 
-0.4599881172180176, -0.22063177824020386, 0.055095568846763004, 1759498943932648007, 
0.21601200103759766, -0.47353726625442505, 0.0661266539842961, 1759498943965083999, 
-0.005772829055786133, 0.3084157705307007, 0.07200594430577886, 1759498943992346042, 
0.45468878746032715, 0.16341441869735718, 0.03896835867531558, 1759498944022308082, 
-0.17045241594314575, -0.3727870583534241, -0.005236938033763008, 1759498944052370241, 
-0.37950974702835083, -0.15887898206710815, -0.018681914854037265, 1759498944082376455, 
0.10228508710861206, 0.2757790684700012, 0.0212386129574251, 1759498944112440047, 
-0.4046249985694885, 0.050510525703430176, 0.02660795285598649, 1759498944142438449, 
0.23983335494995117, -0.2280253767967224, 0.004259046703378158, 1759498944172655513, 
-0.12338072061538696, 0.06301635503768921, 0.03689610416883647, 1759498944205484560, 
0.16426879167556763, 0.37345993518829346, 0.0768865439251741, 1759498944232658568, 
0.08731669187545776, -0.19839626550674438, 0.054142609907988894, 1759498944262572563, 
-0.11578106880187988, -0.44728952646255493, 0.029360245503175314, 1759498944292655577, 
0.09112006425857544, 0.18202757835388184, 0.0519956058649049, 1759498944322625023, 
0.16706007719039917, 0.2662642002105713, 0.05067803032098037, 1759498944352721182, 
0.3401334881782532, -0.4492291212081909, 0.03741790308718085, 1759498944382977717, 
0.06295591592788696, -0.08824402093887329, 0.03617655253152376, 1759498944413311651, 
-0.1879405975341797, 0.31498175859451294, 0.038752172133422434, 1759498944445351161, 
0.06003981828689575, -0.21371418237686157, 0.05053240983187874, 1759498944472992927, 
0.012681961059570312, -0.04909217357635498, 0.01570347535465334, 1759498944503044140, 
-0.1269811987876892, 0.021204888820648193, -0.01925699841798397, 1759498944533076563, 
0.14314508438110352, 0.03233760595321655, -0.03578297420140195, 1759498944563123619, 
-0.29123908281326294, 0.06407171487808228, 0.004680407409224757, 1759498944593248377, 
-0.09007596969604492, -0.002104640007019043, 0.0419281905971814, 1759498944623279523, 
0.030143260955810547, -0.025470077991485596, 0.05671611148098353, 1759498944653408082, 
0.2989410161972046, -0.03323394060134888, 0.042614530296423876, 1759498944684943148, 
0.17473584413528442, -0.03512519598007202, 0.033732501820422416, 1759498944713602352, 
-0.021182239055633545, 0.0816735029220581, 0.029883062921524203, 1759498944743543575, 
-0.1748226284980774, -0.0961962342262268, 0.01185246829616567, 1759498944773614040, 
0.09748053550720215, -0.22554486989974976, 0.0024264605243558748, 1759498944803697851, 
0.1966375708580017, 0.18488723039627075, 0.028230429223969445, 1759498944833803012, 
-0.18415182828903198, 0.11507409811019897, 0.015876378495754285, 1759498944863867817, 
-0.5188969969749451, -0.14263594150543213, -0.01614926186844245, 1759498944893960596, 
0.1411849856376648, -0.16932988166809082, 0.016633982873392537, 1759498944924875443, 
-0.3811659812927246, 0.2362154722213745, 0.047163214109170994, 1759498944957040004, 
0.3069814443588257, 0.015460789203643799, 0.019188458273743894, 1759498944984110279, 
0.031003177165985107, -0.28070420026779175, -0.01003635972649565, 1759498945014261683, 
-0.22334802150726318, -0.19909638166427612, 0.03675013161687589, 1759498945044254534, 
-0.12483453750610352, 0.35789841413497925, 0.057975808193185624, 1759498945074353705, 
-0.3399050831794739, 0.27253252267837524, 0.006882735813179106, 1759498945104369881, 
0.234111487865448, -0.6925742030143738, 0.01704249063680298, 1759498945134469821, 
0.17282801866531372, -0.07025837898254395, 0.07383032698456138, 1759498945164862228, 
0.05643707513809204, 0.6676428318023682, 0.04969496762120038, 1759498945197084642, 
0.06244760751724243, -0.02008366584777832, -0.018082969362148434, 1759498945226992985, 
-0.4473556876182556, -0.751757025718689, -0.010054711851265203, 1759498945254727652, 
0.32388728857040405, 0.4225934147834778, 0.014959633780133008, 1759498945284787964, 
0.07345461845397949, 0.4826428294181824, 0.015780253968479704, 1759498945314872161, 
0.0597759485244751, -0.4591042399406433, 0.019886159520614496, 1759498945344895081, 
0.009184002876281738, -0.3480638265609741, 0.05880036625111821, 1759498945375024517, 
-0.11888337135314941, 0.42740052938461304, 0.03726277700646671, 1759498945405388169, 
-0.20275110006332397, 0.21244430541992188, 0.010240434990372417, 1759498945437052178, 
-0.034229397773742676, -0.6572844386100769, 0.03269400083241477, 1759498945468331604, 
0.12346535921096802, -0.17859280109405518, 0.08841375171847866, 1759498945495355785, 
0.12444823980331421, 0.8441983461380005, 0.047458538818355385, 1759498945525351933, 
0.07389634847640991, -0.03686028718948364, -0.002170035119586887, 1759498945555397507, 
-0.28438472747802734, -0.7995764017105103, 0.01995262023972926, 1759498945585504790, 
0.30113357305526733, 0.17303448915481567, 0.047230838952392135, 1759498945615607049, 
0.3356165289878845, 0.8013738989830017, 0.009458134591615429, 1759498945645695295, 
-0.10412722826004028, -0.353510320186615, -0.0038890939486677686, 1759498945676959208, 
-0.3863922953605652, -0.3218235373497009, 0.01985737688580963, 1759498945708758786, 
0.4398266077041626, 0.5437723398208618, 0.0701934828477497, 1759498945735947966, 
-0.3111024498939514, 0.36699753999710083, 0.058061844242472425, 1759498945765945036, 
0.15382468700408936, -0.6358016729354858, 0.027930788808326824, 1759498945795959299, 
-0.2519640326499939, -0.2900034785270691, 0.041482858549854784, 1759498945826060585, 
0.44505763053894043, 0.6792780756950378, 0.07915097854996689, 1759498945856123056, 
0.0022777318954467773, 0.04161590337753296, 0.03402223177263228, 1759498945886172102, 
-0.2648390531539917, -0.5760329961776733, -0.00042231800814466027, 1759498945917349556, 
0.39487719535827637, -0.06083250045776367, 0.031934794641823944, 1759498945948793101, 
-0.03924667835235596, 0.47971111536026, 0.05502660003059054, 1759498945976437789, 
0.4481472969055176, -0.12659502029418945, 0.0006927209314768374, 1759498946006573565, 
-0.2616426348686218, -0.2753254175186157, -0.04570419562375636, 1759498946036568207, 
0.11719965934753418, -0.19485968351364136, 0.018281203758373617, 1759498946066608696, 
-0.06102406978607178, 0.4403219223022461, 0.05356556586008193, 1759498946097354815, 
0.05522358417510986, 0.1111096739768982, 0.03176752158619286, 1759498946127369162, 
-0.1679290533065796, -0.4656522870063782, 0.003921541094980137, 1759498946157347695, 
-0.13007593154907227, 0.05089062452316284, 0.01882128339831707, 1759498946188801035, 
-0.20500975847244263, 0.33757370710372925, 0.051269304436825126, 1759498946219305794, 
-0.017726421356201172, -0.14645785093307495, 0.06644502755425083, 1759498946247487287, 
0.20647317171096802, -0.12547916173934937, 0.05550081731373975, 1759498946277424892, 
-0.02080482244491577, 0.053189218044281006, 0.04218791390295623, 1759498946307473520, 
0.15975803136825562, 0.05217766761779785, -0.008631078240453187, 1759498946337501296, 
-0.29048478603363037, 0.050470054149627686, -0.02306121333208282, 1759498946367540717, 
0.04670381546020508, -0.15258020162582397, 0.029347595985747085, 1759498946397804504, 
-0.08487260341644287, -0.04342973232269287, 0.04366365340194464, 1759498946429956776, 
0.48870861530303955, 0.14246821403503418, 0.03277292219596779, 1759498946459978907, 
-0.23121923208236694, -0.04533088207244873, 0.02348251861309268, 1759498946487773998, 
-0.6821224689483643, -0.12108564376831055, 0.03548860434115108, 1759498946517689123, 
0.22559839487075806, 0.010907232761383057, 0.03733361626321853, 1759498946547723431, 
-0.40508532524108887, 0.09966534376144409, 0.01710623764144799, 1759498946577747666, 
0.5125209093093872, -0.1205819845199585, 0.019174665973431905, 1759498946606822336, 
-0.07839423418045044, -0.02579498291015625, 0.026404780563507303, 1759498946637892446, 
0.08413910865783691, 0.027499079704284668, 0.04103598878271718, 1759498946667860486, 
-0.31064265966415405, 0.13916391134262085, 0.01623083299798865, 1759498946699844406, 
-0.19848453998565674, -0.0897480845451355, 0.008932147497555549, 1759498946728161607, 
0.1257692575454712, -0.2616671919822693, 0.020674183338335154, 1759498946758170718, 
0.11571556329727173, 0.15005671977996826, 0.030197660635636277, 1759498946788251190, 
-0.18912053108215332, 0.1999087929725647, 0.01569289921002454, 1759498946818301929, 
0.05802732706069946, -0.14568090438842773, 0.006125959397180473, 1759498946848410502, 
-0.16549420356750488, -0.4332820773124695, 0.01738981909441034, 1759498946878457415, 
-0.2631238102912903, 0.254633367061615, 0.04271267444682425, 1759498946907854785, 
0.12065631151199341, 0.32121384143829346, 0.025657396683135183, 1759498946941279722, 
0.022034168243408203, -0.18645012378692627, -0.006242514404378464, 1759498946968702451, 
0.34881097078323364, -0.4602733254432678, 0.027032094618958228, 1759498946998776891, 
-0.17627555131912231, 0.29680341482162476, 0.038699696833001986, 1759498947028779397, 
-0.13375014066696167, 0.4419848918914795, 0.002249981682111032, 1759498947057839569, 
0.19533908367156982, -0.37968534231185913, -0.0015347115215000621, 1759498947088936758, 
-0.03570681810379028, -0.5029394626617432, 0.04436738645602528, 1759498947119034022, 
-0.21583867073059082, 0.5143584609031677, 0.04223319553684504, 1759498947149138188, 
0.17104476690292358, 0.3572327494621277, 0.006781546989648589, 1759498947179842864, 
0.05785638093948364, -0.5891465544700623, 0.01471948626810534, 1759498947211635523, 
0.279278039932251, -0.24302935600280762, 0.06197145491717686, 1759498947239309275, 
0.36170732975006104, 0.5813678503036499, 0.028565917290219244, 1759498947269342838, 
0.04407799243927002, 0.38831591606140137, -0.028374682169770613, 1759498947299461292, 
-0.4785424470901489, -0.7790145874023438, 0.0010523365303617032, 1759498947329518873, 
0.4561294913291931, -0.07185554504394531, 0.06916889922260945, 1759498947359587529, 
-0.2187771201133728, 0.6283711194992065, 0.046958622742162774, 1759498947389697232, 
0.3103869557380676, -0.16094964742660522, -0.0005142628845891356, 1759498947420941155, 
-0.3980715870857239, -0.4897211194038391, 0.012627610702203047, 1759498947453303584, 
-0.03850400447845459, -0.042852044105529785, 0.03602225665098981, 1759498947479939979, 
-0.1644919514656067, 0.30196917057037354, 0.00811289189682098, 1759498947510094593, 
-0.3440392017364502, -0.4928348660469055, 0.030515680575366494, 1759498947540124153, 
0.06536614894866943, -0.1990916132926941, 0.07262348393589538, 1759498947570117678, 
0.18205267190933228, 0.40875983238220215, 0.03865976604826697, 1759498947600101005, 
0.39413100481033325, 0.09801870584487915, -0.005623617059404373, 1759498947629192888, 
-0.20979547500610352, -0.4404734969139099, 0.023107256089972907, 1759498947660140226, 
-0.2581154704093933, -0.008580684661865234, 0.05585391681325031, 1759498947692880649, 
0.019386887550354004, 0.4725411534309387, 0.05697424210043051, 1759498947720433019, 
-0.0635673999786377, -0.31796544790267944, 0.015416793767415988, 1759498947750446092, 
-0.4329214096069336, -0.3076043128967285, 0.03202948802449479, 1759498947780508098, 
0.25800955295562744, 0.20994454622268677, 0.04649552408496965, 1759498947810635588, 
-0.26878297328948975, 0.2725992202758789, -0.018393127778953147, 1759498947840657051, 
-0.1159830093383789, -0.3200233578681946, -0.030233930426089583, 1759498947870967683, 
0.14052212238311768, -0.16479092836380005, 0.03550071698997251, 1759498947901291596, 
0.3216713070869446, 0.3255475163459778, 0.057081177793242635, 1759498947933021163, 
0.1946558952331543, 0.07446527481079102, 0.032738396181756224, 1759498947962904527, 
-0.28073596954345703, -0.2818898558616638, 0.0071322700084624005, 1759498947991140007, 
-0.2219533920288086, -0.1656266450881958, 0.03324067456436738, 1759498948021063629, 
0.30065131187438965, 0.12275630235671997, 0.05954094602752142, 1759498948043158339, 
0.050189852714538574, 0.37653183937072754, 0.04777118298985201, 1759498948071173386, 
0.060021936893463135, -0.19934821128845215, -0.014663704430272336, 1759498948100223012, 
-0.4369416832923889, -0.34598350524902344, 0.017096968591772174, 1759498948131320123, 
0.6356267929077148, 0.2105315923690796, 0.07236629471460106, 1759498948161442271, 
-0.17000025510787964, 0.1663738489151001, 0.018387985595330024, 1759498948191499831, 
0.13304126262664795, -0.2060704231262207, -0.01929803315927544, 1759498948221551561, 
-0.17705190181732178, -0.1465185284614563, 0.03864306397213978, 1759498948253495435, 
-0.18727463483810425, 0.13227272033691406, 0.046482012831168415, 1759498948311737072, 
-0.3686666488647461, 0.03381067514419556, 0.010578712870750016, 1759498948341780097, 
0.35454893112182617, -0.22099995613098145, 0.043127521155690435, 1759498948371903587, 
-0.11945271492004395, 0.010418117046356201, 0.04482071598671887, 1759498948401958330, 
0.17014729976654053, 0.0508001446723938, -0.003949586701186516, 1759498948462112660, 
-0.1748514175415039, -0.26012980937957764, 0.012091414391390427, 1759498948493108773, 
-0.031659722328186035, -0.05068516731262207, 0.011123986706912403, 1759498948525251177, 
0.10949987173080444, 0.24687600135803223, 0.035309056864700414, 1759498948552328088, 
-0.2399977445602417, 0.02265697717666626, 0.05022566520667632, 1759498948582397648, 
0.3316897749900818, -0.3233056664466858, 0.05677289587989179, 1759498948612510258, 
0.4848167896270752, 0.00015968084335327148, 0.03340036840731756, 1759498948642523578, 
0.05562704801559448, 0.25079184770584106, 0.013924244757394703, 1759498948672613611, 
-0.29233741760253906, -0.024442315101623535, 0.02500266070308523, 1759498948702697849, 
-0.20457547903060913, -0.3528682589530945, 0.03948321449546354, 1759498948733562717, 
-0.2004501223564148, 0.08569782972335815, 0.025548198780039624, 1759498948765339526, 
0.40036892890930176, 0.17209511995315552, 0.02114058678293095, 1759498948793037159, 
-0.11350816488265991, -0.1949535608291626, 0.025839935735622398, 1759498948823186793, 
0.12129998207092285, -0.24106037616729736, 0.035586699796728856, 1759498948853275584, 
-0.3366810083389282, 0.38762593269348145, 0.020878265998609376, 1759498948883030979, 
0.20506298542022705, 0.14758676290512085, 0.005505896263846001, 1759498948913095464, 
-0.03968268632888794, -0.46980929374694824, 0.0068329685679944675, 1759498948943236527, 
0.27781665325164795, -0.13791930675506592, 0.03568699875904819, 1759498948973242932, 
-0.01531517505645752, 0.47114741802215576, 0.04048119639590831, 1759498949005581750, 
0.03120964765548706, 0.156078040599823, 0.020806276204504794, 1759498949036015708, 
-0.10545337200164795, -0.5726025104522705, 0.02126012381959783, 1759498949063552631, 
-0.06199932098388672, -0.17189651727676392, 0.036163976340673705, 1759498949093581182, 
0.20413517951965332, 0.5884289741516113, 0.022234651869409275, 1759498949123793274, 
0.0838475227355957, 0.09649628400802612, -0.007287099588319133, 1759498949153657943, 
0.015328168869018555, -0.812790036201477, 0.021678339351132437, 1759498949183722473, 
-0.0896991491317749, -0.0415002703666687, 0.04285412890919756, 1759498949214103662, 
0.08484309911727905, 0.7451567053794861, 0.0015420083791431994, 1759498949245635068, 
0.2708410620689392, -0.5758132934570312, -0.0030428400664578464, 1759498949276106240, 
0.3430291414260864, 0.4584810137748718, 0.05593878619018516, 1759498949334340913, 
0.12818342447280884, 0.4239649772644043, -0.0017876461325644659, 1759498949364133825, 
-0.2869846224784851, -0.46706289052963257, 0.007969635157683227, 1759498949394229878, 
-0.013345181941986084, -0.3367873430252075, 0.062417206253525384, 1759498949424542890, 
0.029872894287109375, 0.2832998037338257, -0.02736883355982518, 1759498949485145322, 
-0.29766780138015747, -0.4942247271537781, -0.002012816814455491, 1759498949517200101, 
-0.15890061855316162, -0.2619708776473999, 0.07038443788765932, 1759498949544619705, 
-0.23566049337387085, 0.6102156043052673, 0.04856220448955971, 1759498949574609160, 
0.34989726543426514, -0.04268527030944824, -0.0012727276846878832, 1759498949604686198, 
-0.020946145057678223, -0.4894593358039856, 0.006980532129664525, 1759498949634770377, 
0.2410385012626648, 0.07085531949996948, 0.01953388956036956, 1759498949664874963, 
-0.2383737564086914, 0.4824117422103882, 0.01042295222116067, 1759498949694910801, 
-0.03151899576187134, -0.14533370733261108, 0.03223823807304479, 1759498949725367750, 
-0.28399741649627686, -0.2752218246459961, 0.05842938375898118, 1759498949757761688, 
0.6246175169944763, 0.17694509029388428, 0.04204525702178863, 1759498949787275249, 
0.21406733989715576, 0.19953489303588867, -0.0030969093443371175, 1759498949815144042, 
0.24405312538146973, -0.04838758707046509, 0.040634611723993956, 1759498949868146534, 
-0.17724555730819702, 0.22929775714874268, 0.048656762058385955, 1759498949905696364, 
0.21303826570510864, -0.2505364418029785, 0.029266329716993045, 1759498949935477509, 
-0.2885286808013916, -0.05359762907028198, 0.004559363783992793, 1759498949965548808, 
-0.20819270610809326, 0.10288435220718384, 0.008101818565763506, 1759498950035707203, 
-0.10000300407409668, -0.08143877983093262, 0.012325516944025042, 1759498950065776206, 
-0.1500232219696045, -0.12188035249710083, 0.03744841492495031, 1759498950094838841, 
-0.16137617826461792, 0.04156672954559326, 0.07172384586779458, 1759498950125947684, 
0.12798863649368286, 0.1305287480354309, 0.05669210819330838, 1759498950157079269, 
0.11421680450439453, -0.07160955667495728, 0.00401318653826126, 1759498950189012182, 
-0.19869565963745117, -0.21531301736831665, 0.0335500661485479, 1759498950216232057, 
0.2596554756164551, 0.00990748405456543, 0.06345714105906768, 1759498950246435067, 
0.10370856523513794, 0.12003070116043091, 0.014310878416967801, 1759498950276221005, 
-0.2411978840827942, 0.025013864040374756, -0.01478279355999376, 1759498950306579439, 
-0.16783982515335083, -0.1805533766746521, 0.018461182943181564, 1759498950336362173, 
0.0024493932723999023, -0.13878530263900757, 0.052335261097064885, 1759498950366486720, 
0.0889177918434143, 0.33779191970825195, 0.007874101092180202, 1759498950397492162, 
0.12885510921478271, 0.07993608713150024, -0.0051427127331965345, 1759498950429009585, 
-0.09896969795227051, -0.34222203493118286, 0.062227428934479204, 1759498950456723591, 
0.38083797693252563, -0.009548544883728027, 0.06489716155308448, 1759498950486777101, 
0.24134862422943115, 0.30605846643447876, 0.015287854329669462, 1759498950515894571, 
0.06164586544036865, 0.08326214551925659, 0.011639156467180766, 1759498950545918228, 
-0.34123289585113525, -0.29275113344192505, 0.050226541952012795, 1759498950577598805, 
0.579247772693634, -0.0711674690246582, 0.04075218508577045, 1759498950607615339, 
-0.18678700923919678, 0.393751323223114, 0.01799671033474744, 1759498950637728933, 
0.28758251667022705, -0.10383468866348267, 0.025594214927731382, 1759498950669171479, 
-0.20602554082870483, -0.4782360792160034, 0.012604696570737905, 1759498950700300494, 
0.2070608139038086, 0.01697748899459839, -3.830224572006e-05, 1759498950727725604, 
-0.10376369953155518, 0.36656951904296875, 0.0043754900220525465, 1759498950757687236, 
-0.09063547849655151, 0.3488568067550659, 0.011479760279267184, 1759498950780348773, 
-0.04762369394302368, -0.5072809457778931, 0.01795603499597804, 1759498950808196786, 
-0.09998530149459839, -0.21145009994506836, 0.0520112696492454, 1759498950837725943, 
0.10874438285827637, 0.5132976770401001, 0.06891163148840837, 1759498950867876213, 
0.2950729727745056, -0.15288960933685303, 0.03765411880964038, 1759498950896827608, 
0.4077451229095459, 0.14194327592849731, 0.03298080318940992, 1759498950957933047, 
0.10476523637771606, 0.47368115186691284, 0.0020224207018189944, 1759498950989282494, 
-0.2734532356262207, -0.2119174599647522, 0.007250004832946534, 1759498951021568584, 
-0.09853982925415039, -0.4459531307220459, 0.03246756861702319, 1759498951048647982, 
0.2607117295265198, 0.6620286703109741, 0.0064743523251718765, 1759498951078519975, 
-0.04709213972091675, -0.6307024955749512, 0.026689531054867884, 1759498951138293729, 
-0.1689847707748413, 0.04045557975769043, 0.04593469251269323, 1759498951167575905, 
-0.15437215566635132, 0.6120157241821289, 0.023744125268316884, 1759498951198454058, 
0.4345051646232605, -0.22462952136993408, 0.014111933449071988, 1759498951229609775, 
0.0716238021850586, -0.6401326060295105, 0.0324768639124222, 1759498951261092568, 
0.1883840560913086, 0.27243751287460327, 0.06559015692026511, 1759498951288622997, 
-0.17143386602401733, 0.6908066272735596, 0.012666476814670402, 1759498951318606247, 
0.03858464956283569, -0.3282891511917114, -0.02040474159027229, 1759498951348674081, 
-0.18452292680740356, -0.6267672777175903, 0.02898968613377107, 1759498951378758204, 
0.579072117805481, 0.38905900716781616, 0.041084485369224606, 1759498951407853836, 
-0.02371656894683838, 0.6385143399238586, -0.02044584345364361, 1759498951438876596, 
-0.0263671875, -0.5807853937149048, -0.004440139219180105, 1759498951469725181, 
-0.2918495535850525, -0.41222327947616577, 0.028042669390688096, 1759498951501308329, 
-0.15366536378860474, 0.5174535512924194, 0.01677076958526158, 1759498951531171206, 
0.033316195011138916, 0.19703137874603271, 0.001161996855024142, 1759498951559133845, 
0.02354586124420166, -0.5576552748680115, 0.04640031232927885, 1759498951589279061, 
-0.08783292770385742, -0.4368201494216919, 0.06718899715739587, 1759498951610818064, 
0.19834870100021362, 0.3206193447113037, 0.023403390036819363, 1759498951639337119, 
0.09646373987197876, 0.24002331495285034, -0.018750876394652418, 1759498951668395847, 
0.5591376423835754, -0.38177990913391113, 0.030613844898350222, 1759498951699475087, 
-0.1647741198539734, -0.18604344129562378, 0.057177232779465556, 1759498951729592097, 
-0.1664711833000183, 0.46834826469421387, 0.030757693552812847, 1759498951759631760, 
-0.029100477695465088, -0.0627131462097168, 8.11962299425712e-06, 1759498951789775779, 
-0.1983206868171692, -0.27994686365127563, -0.0053990534462182325, 1759498951821761510, 
0.1882687211036682, 0.00018459558486938477, -0.002644511338134477, 1759498951853096442, 
0.28678029775619507, 0.2964112162590027, -0.007670568588442566, 1759498951879921097, 
-0.2570738196372986, -0.08237558603286743, 0.02589263313232099, 1759498951909952483, 
-0.3775361180305481, -0.19211477041244507, 0.05292479330775695, 1759498951940038202, 
0.17992395162582397, 0.06514739990234375, 0.030830603214587863, 1759498951970115483, 
-0.049864232540130615, 0.1109040379524231, 0.0011568440508712451, 1759498952000185255, 
0.10002416372299194, -0.20308387279510498, 0.024386906562901822, 1759498952030516193, 
-0.1976049542427063, -0.050818443298339844, 0.03744449181148327, 1759498952061561352, 
-0.12539005279541016, 0.07430988550186157, 0.027461618639792622, 1759498952093097665, 
-0.16150033473968506, -0.07972723245620728, 0.021550513712221338, 1759498952119477029, 
0.32921546697616577, -0.03414434194564819, 0.012108284831229905, 1759498952150510484, 
-0.3306466341018677, 0.005202949047088623, 0.017857874456428745, 1759498952180581142, 
-0.031703948974609375, 0.03272813558578491, 0.028430133235720263, 1759498952210657053, 
0.1568170189857483, -0.017727315425872803, 0.008455698631273234, 1759498952240730167, 
-0.3963811993598938, -0.0533679723739624, -0.0010161999090718122, 1759498952270895347, 
-0.027047932147979736, 0.009994745254516602, 0.034439941356171976, 1759498952301139947, 
-0.04665350914001465, 0.12954890727996826, 0.05416982784022718, 1759498952333123640, 
0.2586723566055298, -0.016575336456298828, 0.02480896469093527, 1759498952361026561, 
-0.2480926513671875, -0.1551605463027954, 0.004955353913373878, 1759498952391088377, 
-0.17848336696624756, -0.322715699672699, 0.040058793403519304, 1759498952413135970, 
0.074573814868927, 0.23805755376815796, 0.036993242270125896, 1759498952451225635, 
0.17953747510910034, 0.132343590259552, -0.0073396972052896395, 1759498952481263524, 
0.28818821907043457, -0.09970152378082275, 0.027559858397820953, 1759498952511349550, 
-0.15828204154968262, -0.20821470022201538, 0.04844273740709316, 1759498952541436810, 
0.0035446882247924805, 0.11060690879821777, 0.009591515253404462, 1759498952573561932, 
-0.07808786630630493, 0.2434949278831482, -0.01173825438486096, 1759498952604428020, 
